File: mohanta_2013/no_buffer/raman/curve_1_fit.dat
497.553,0.0103516
497.653,0.0104619
497.753,0.0105732
497.853,0.0106853
497.953,0.0107983
498.053,0.0109123
498.153,0.0110272
498.253,0.011143
498.353,0.0112598
498.453,0.0113775
498.553,0.0114961
498.653,0.0116157
498.753,0.0117363
498.853,0.0118578
498.953,0.0119802
499.053,0.0121037
499.153,0.012228
499.253,0.0123534
499.353,0.0124797
499.453,0.012607
499.553,0.0127353
499.653,0.0128646
499.753,0.0129948
499.853,0.0131261
499.953,0.0132583
500.053,0.0133916
500.153,0.0135258
500.253,0.013661
500.353,0.0137973
500.453,0.0139346
500.553,0.0140728
500.653,0.0142121
500.753,0.0143524
500.853,0.0144938
500.953,0.0146361
501.053,0.0147795
501.153,0.0149239
501.253,0.0150694
501.353,0.0152159
501.453,0.0153634
501.553,0.015512
501.653,0.0156616
501.753,0.0158123
501.853,0.015964
501.953,0.0161168
502.053,0.0162706
502.153,0.0164255
502.253,0.0165814
502.353,0.0167384
502.453,0.0168965
502.553,0.0170556
502.653,0.0172158
502.753,0.0173771
502.853,0.0175395
502.953,0.0177029
503.053,0.0178674
503.153,0.0180329
503.253,0.0181996
503.353,0.0183673
503.453,0.0185362
503.553,0.0187061
503.653,0.018877
503.753,0.0190491
503.853,0.0192223
503.953,0.0193965
504.053,0.0195719
504.153,0.0197483
504.253,0.0199258
504.353,0.0201044
504.453,0.0202842
504.553,0.020465
504.653,0.0206469
504.753,0.0208299
504.853,0.021014
504.953,0.0211992
505.053,0.0213854
505.153,0.0215728
505.253,0.0217613
505.353,0.0219509
505.453,0.0221416
505.553,0.0223334
505.653,0.0225262
505.753,0.0227202
505.853,0.0229153
505.953,0.0231115
506.053,0.0233087
506.153,0.0235071
506.253,0.0237065
506.353,0.0239071
506.453,0.0241087
506.553,0.0243115
506.653,0.0245153
506.753,0.0247202
506.853,0.0249262
506.953,0.0251333
507.053,0.0253415
507.153,0.0255508
507.253,0.0257612
507.353,0.0259726
507.453,0.0261851
507.553,0.0263987
507.653,0.0266134
507.753,0.0268292
507.853,0.027046
507.953,0.0272639
508.053,0.0274828
508.153,0.0277029
508.253,0.027924
508.353,0.0281461
508.453,0.0283693
508.553,0.0285936
508.653,0.0288189
508.753,0.0290453
508.853,0.0292727
508.953,0.0295012
509.053,0.0297307
509.153,0.0299612
509.253,0.0301928
509.353,0.0304254
509.453,0.030659
509.553,0.0308936
509.653,0.0311293
509.753,0.031366
509.853,0.0316036
509.953,0.0318423
510.053,0.032082
510.153,0.0323227
510.253,0.0325644
510.353,0.032807
510.453,0.0330507
510.553,0.0332953
510.653,0.0335409
510.753,0.0337875
510.853,0.034035
510.953,0.0342835
511.053,0.0345329
511.153,0.0347833
511.253,0.0350346
511.353,0.0352869
511.453,0.03554
511.553,0.0357941
511.653,0.0360491
511.753,0.0363051
511.853,0.0365619
511.953,0.0368196
512.053,0.0370782
512.153,0.0373377
512.253,0.0375981
512.353,0.0378593
512.453,0.0381214
512.553,0.0383844
512.653,0.0386482
512.753,0.0389128
512.853,0.0391783
512.953,0.0394446
513.053,0.0397117
513.153,0.0399797
513.253,0.0402484
513.353,0.0405179
513.453,0.0407882
513.553,0.0410593
513.653,0.0413312
513.753,0.0416038
513.853,0.0418772
513.953,0.0421513
514.053,0.0424261
514.153,0.0427017
514.253,0.042978
514.353,0.0432549
514.453,0.0435326
514.553,0.043811
514.653,0.0440901
514.753,0.0443698
514.853,0.0446502
514.953,0.0449312
515.053,0.0452128
515.153,0.0454951
515.253,0.045778
515.353,0.0460616
515.453,0.0463457
515.553,0.0466304
515.653,0.0469157
515.753,0.0472015
515.853,0.0474879
515.953,0.0477748
516.053,0.0480623
516.153,0.0483503
516.253,0.0486388
516.353,0.0489278
516.453,0.0492173
516.553,0.0495073
516.653,0.0497977
516.753,0.0500886
516.853,0.0503799
516.953,0.0506716
517.053,0.0509638
517.153,0.0512563
517.253,0.0515493
517.353,0.0518426
517.453,0.0521363
517.553,0.0524304
517.653,0.0527248
517.753,0.0530195
517.853,0.0533145
517.953,0.0536099
518.053,0.0539055
518.153,0.0542014
518.253,0.0544975
518.353,0.054794
518.453,0.0550906
518.553,0.0553875
518.653,0.0556845
518.753,0.0559818
518.853,0.0562793
518.953,0.0565769
519.053,0.0568746
519.153,0.0571725
519.253,0.0574706
519.353,0.0577687
519.453,0.0580669
519.553,0.0583652
519.653,0.0586636
519.753,0.058962
519.853,0.0592605
519.953,0.059559
520.053,0.0598575
520.153,0.060156
520.253,0.0604544
520.353,0.0607529
520.453,0.0610512
520.553,0.0613495
520.653,0.0616477
520.753,0.0619459
520.853,0.0622439
520.953,0.0625417
521.053,0.0628395
521.153,0.063137
521.253,0.0634344
521.353,0.0637316
521.453,0.0640286
521.553,0.0643254
521.653,0.0646219
521.753,0.0649182
521.853,0.0652142
521.953,0.0655099
522.053,0.0658053
522.153,0.0661004
522.253,0.0663951
522.353,0.0666895
522.453,0.0669836
522.553,0.0672772
522.653,0.0675705
522.753,0.0678633
522.853,0.0681557
522.953,0.0684476
523.053,0.0687391
523.153,0.06903
523.253,0.0693205
523.353,0.0696105
523.453,0.0698999
523.553,0.0701888
523.653,0.0704771
523.753,0.0707648
523.853,0.071052
523.953,0.0713385
524.053,0.0716243
524.153,0.0719095
524.253,0.0721941
524.353,0.0724779
524.453,0.0727611
524.553,0.0730435
524.653,0.0733252
524.753,0.0736062
524.853,0.0738864
524.953,0.0741658
525.053,0.0744443
525.153,0.0747221
525.253,0.074999
525.353,0.0752751
525.453,0.0755503
525.553,0.0758246
525.653,0.076098
525.753,0.0763705
525.853,0.076642
525.953,0.0769126
526.053,0.0771822
526.153,0.0774508
526.253,0.0777184
526.353,0.077985
526.453,0.0782505
526.553,0.078515
526.653,0.0787784
526.753,0.0790407
526.853,0.0793019
526.953,0.079562
527.053,0.0798209
527.153,0.0800787
527.253,0.0803353
527.353,0.0805907
527.453,0.0808449
527.553,0.0810979
527.653,0.0813496
527.753,0.0816001
527.853,0.0818493
527.953,0.0820972
528.053,0.0823438
528.153,0.0825891
528.253,0.082833
528.353,0.0830756
528.453,0.0833168
528.553,0.0835566
528.653,0.083795
528.753,0.084032
528.853,0.0842675
528.953,0.0845016
529.053,0.0847343
529.153,0.0849654
529.253,0.0851951
529.353,0.0854232
529.453,0.0856498
529.553,0.0858749
529.653,0.0860984
529.753,0.0863203
529.853,0.0865406
529.953,0.0867593
530.053,0.0869764
530.153,0.0871919
530.253,0.0874057
530.353,0.0876179
530.453,0.0878283
530.553,0.0880371
530.653,0.0882441
530.753,0.0884495
530.853,0.0886531
530.953,0.0888549
531.053,0.089055
531.153,0.0892533
531.253,0.0894498
531.353,0.0896445
531.453,0.0898374
531.553,0.0900284
531.653,0.0902176
531.753,0.0904049
531.853,0.0905904
531.953,0.0907739
532.053,0.0909556
532.153,0.0911353
532.253,0.0913131
532.353,0.091489
532.453,0.0916629
532.553,0.0918349
532.653,0.0920049
532.753,0.0921729
532.853,0.0923388
532.953,0.0925028
533.053,0.0926648
533.153,0.0928247
533.253,0.0929825
533.353,0.0931383
533.453,0.0932921
533.553,0.0934437
533.653,0.0935933
533.753,0.0937407
533.853,0.0938861
533.953,0.0940293
534.053,0.0941704
534.153,0.0943093
534.253,0.0944461
534.353,0.0945807
534.453,0.0947131
534.553,0.0948433
534.653,0.0949714
534.753,0.0950972
534.853,0.0952209
534.953,0.0953423
535.053,0.0954614
535.153,0.0955784
535.253,0.0956931
535.353,0.0958055
535.453,0.0959157
535.553,0.0960236
535.653,0.0961292
535.753,0.0962325
535.853,0.0963335
535.953,0.0964322
536.053,0.0965286
536.153,0.0966227
536.253,0.0967145
536.353,0.0968039
536.453,0.096891
536.553,0.0969757
536.653,0.0970581
536.753,0.0971381
536.853,0.0972158
536.953,0.0972911
537.053,0.097364
537.153,0.0974345
537.253,0.0975027
537.353,0.0975685
537.453,0.0976318
537.553,0.0976928
537.653,0.0977513
537.753,0.0978075
537.853,0.0978612
537.953,0.0979125
538.053,0.0979614
538.153,0.0980079
538.253,0.0980519
538.353,0.0980935
538.453,0.0981327
538.553,0.0981694
538.653,0.0982037
538.753,0.0982355
538.853,0.0982649
538.953,0.0982919
539.053,0.0983164
539.153,0.0983384
539.253,0.098358
539.353,0.0983752
539.453,0.0983898
539.553,0.0984021
539.653,0.0984118
539.753,0.0984191
539.853,0.098424
539.953,0.0984264
540.053,0.0984253
540.153,0.0984155
540.253,0.0983963
540.353,0.0983677
540.453,0.0983296
540.553,0.098282
540.653,0.0982251
540.753,0.0981588
540.853,0.098083
540.953,0.097998
541.053,0.0979036
541.153,0.0977998
541.253,0.0976868
541.353,0.0975646
541.453,0.0974332
541.553,0.0972925
541.653,0.0971428
541.753,0.096984
541.853,0.0968161
541.953,0.0966392
542.053,0.0964534
542.153,0.0962587
542.253,0.0960551
542.353,0.0958428
542.453,0.0956218
542.553,0.0953921
542.653,0.0951538
542.753,0.094907
542.853,0.0946517
542.953,0.094388
543.053,0.0941161
543.153,0.0938359
543.253,0.0935475
543.353,0.0932511
543.453,0.0929467
543.553,0.0926344
543.653,0.0923142
543.753,0.0919864
543.853,0.0916509
543.953,0.0913078
544.053,0.0909573
544.153,0.0905994
544.253,0.0902343
544.353,0.089862
544.453,0.0894826
544.553,0.0890963
544.653,0.0887031
544.753,0.0883032
544.853,0.0878966
544.953,0.0874835
545.053,0.0870639
545.153,0.0866381
545.253,0.0862061
545.353,0.0857679
545.453,0.0853238
545.553,0.0848739
545.653,0.0844182
545.753,0.0839569
545.853,0.0834901
545.953,0.0830179
546.053,0.0825404
546.153,0.0820578
546.253,0.0815702
546.353,0.0810777
546.453,0.0805804
546.553,0.0800785
546.653,0.0795721
546.753,0.0790612
546.853,0.0785461
546.953,0.0780269
547.053,0.0775036
547.153,0.0769765
547.253,0.0764456
547.353,0.075911
547.453,0.075373
547.553,0.0748316
547.653,0.0742869
547.753,0.0737391
547.853,0.0731884
547.953,0.0726347
548.053,0.0720783
548.153,0.0715193
548.253,0.0709579
548.353,0.070394
548.453,0.069828
548.553,0.0692598
548.653,0.0686897
548.753,0.0681177
548.853,0.067544
548.953,0.0669687
549.053,0.0663919
549.153,0.0658137
549.253,0.0652343
549.353,0.0646538
549.453,0.0640723
549.553,0.06349
549.653,0.0629068
549.753,0.0623231
549.853,0.0617388
549.953,0.0611542
550.053,0.0605692
550.153,0.0599841
550.253,0.059399
550.353,0.0588139
550.453,0.0582289
550.553,0.0576443
550.653,0.05706
550.753,0.0564762
550.853,0.055893
550.953,0.0553106
551.053,0.0547289
551.153,0.0541482
551.253,0.0535684
551.353,0.0529898
551.453,0.0524124
551.553,0.0518363
551.653,0.0512617
551.753,0.0506885
551.853,0.0501169
551.953,0.049547
552.053,0.0489789
552.153,0.0484126
552.253,0.0478483
552.353,0.047286
552.453,0.0467258
552.553,0.0461679
552.653,0.0456122
552.753,0.0450589
552.853,0.044508
552.953,0.0439596
553.053,0.0434138
553.153,0.0428707
553.253,0.0423303
553.353,0.0417926
553.453,0.0412579
553.553,0.0407261
553.653,0.0401973
553.753,0.0396715
553.853,0.0391488
553.953,0.0386293
554.053,0.0381131
554.153,0.0376001
554.253,0.0370905
554.353,0.0365843
554.453,0.0360815
554.553,0.0355822
554.653,0.0350864
554.753,0.0345943
554.853,0.0341057
554.953,0.0336208
555.053,0.0331397
555.153,0.0326622
555.253,0.0321886
555.353,0.0317188
555.453,0.0312528
555.553,0.0307907
555.653,0.0303326
555.753,0.0298784
555.853,0.0294281
555.953,0.0289819
556.053,0.0285397
556.153,0.0281015
556.253,0.0276674
556.353,0.0272374
556.453,0.0268115
556.553,0.0263897
556.653,0.0259721
556.753,0.0255586
556.853,0.0251493
556.953,0.0247441
557.053,0.0243432
557.153,0.0239464
557.253,0.0235539
557.353,0.0231655
557.453,0.0227814
557.553,0.0224015
557.653,0.0220258
557.753,0.0216543
557.853,0.0212871
557.953,0.020924
558.053,0.0205652
558.153,0.0202106
558.253,0.0198602
558.353,0.019514
558.453,0.019172
558.553,0.0188341
558.653,0.0185005
558.753,0.018171
558.853,0.0178457
558.953,0.0175245
559.053,0.0172074
559.153,0.0168945
559.253,0.0165856
559.353,0.0162808
559.453,0.0159801
559.553,0.0156835
559.653,0.0153908
559.753,0.0151022
559.853,0.0148176
559.953,0.0145369
560.053,0.0142602
560.153,0.0139874
560.253,0.0137185
560.353,0.0134535
560.453,0.0131923
560.553,0.012935
560.653,0.0126815
560.753,0.0124317
560.853,0.0121857
560.953,0.0119434
561.053,0.0117048
561.153,0.0114698
561.253,0.0112385
561.353,0.0110109
561.453,0.0107867
561.553,0.0105662
561.653,0.0103491
561.753,0.0101355
561.853,0.00992542
561.953,0.00971873
562.053,0.00951542
562.153,0.00931548
562.253,0.00911886
562.353,0.00892553
562.453,0.00873546
562.553,0.00854861
562.653,0.00836496
562.753,0.00818447
562.853,0.0080071
562.953,0.00783283
563.053,0.00766161
563.153,0.00749342
563.253,0.00732821
563.353,0.00716595
563.453,0.00700662
563.553,0.00685017
563.653,0.00669657
563.753,0.00654579
563.853,0.00639778
563.953,0.00625252
564.053,0.00610997
564.153,0.0059701
564.253,0.00583287
564.353,0.00569825
564.453,0.0055662
564.553,0.00543669
564.653,0.00530968
564.753,0.00518514
564.853,0.00506303
564.953,0.00494332
565.053,0.00482599
565.153,0.00471098
565.253,0.00459827
565.353,0.00448783
565.453,0.00437962
565.553,0.00427361
565.653,0.00416976
565.753,0.00406805
565.853,0.00396843
565.953,0.00387088
566.053,0.00377537
566.153,0.00368186
566.253,0.00359033
566.353,0.00350073
566.453,0.00341304
566.553,0.00332722
566.653,0.00324326
566.753,0.0031611
566.853,0.00308074
566.953,0.00300212
567.053,0.00292524
567.153,0.00285004
567.253,0.00277652
567.353,0.00270463
567.453,0.00263435
567.553,0.00256565
567.653,0.0024985
567.753,0.00243287
567.853,0.00236874
567.953,0.00230608
568.053,0.00224486
568.153,0.00218506
568.253,0.00212664
568.353,0.00206959
568.453,0.00201387
568.553,0.00195947
568.653,0.00190635
568.753,0.0018545
568.853,0.00180388
568.953,0.00175448
569.053,0.00170626
569.153,0.00165921
569.253,0.0016133
569.353,0.00156851
569.453,0.00152482
569.553,0.0014822
569.653,0.00144064
569.753,0.00140011
569.853,0.00136058
569.953,0.00132205
570.053,0.00128448
570.153,0.00124786
570.253,0.00121217
570.353,0.00117739
570.453,0.00114349
570.553,0.00111046
570.653,0.00107829
570.753,0.00104694
570.853,0.00101641
570.953,0.000986677
571.053,0.00095772
571.153,0.000929523
571.253,0.000902069
571.353,0.000875342
571.453,0.000849325
571.553,0.000824003
571.653,0.000799359
571.753,0.000775377
571.853,0.000752042
571.953,0.00072934
572.053,0.000707255
572.153,0.000685773
572.253,0.000664879
572.353,0.00064456
572.453,0.000624802
572.553,0.000605592
572.653,0.000586916
572.753,0.000568761
572.853,0.000551114
572.953,0.000533964
573.053,0.000517298
573.153,0.000501104
573.253,0.00048537
573.353,0.000470085
573.453,0.000455238
573.553,0.000440817
573.653,0.000426812
573.753,0.000413212
573.853,0.000400008
573.953,0.000387188
574.053,0.000374742
574.153,0.000362662
574.253,0.000350938
574.353,0.00033956
574.453,0.00032852
574.553,0.000317808
574.653,0.000307415
574.753,0.000297334
574.853,0.000287556
574.953,0.000278073
575.053,0.000268876
575.153,0.000259959
575.253,0.000251313
575.353,0.000242932
575.453,0.000234807
575.553,0.000226933
575.653,0.000219301
575.753,0.000211906
575.853,0.00020474
575.953,0.000197798
576.053,0.000191073
576.153,0.000184559
576.253,0.000178249
576.353,0.000172139
576.453,0.000166222
576.553,0.000160494
576.653,0.000154947
576.753,0.000149578
576.853,0.000144382
576.953,0.000139352
577.053,0.000134485
577.153,0.000129775
577.253,0.000125218
577.353,0.00012081
577.453,0.000116545
577.553,0.00011242
577.653,0.000108431
577.753,0.000104574
577.853,0.000100843
577.953,9.72371e-05
578.053,9.37506e-05
578.153,9.03805e-05
578.253,8.71232e-05
578.353,8.39752e-05
578.453,8.09331e-05
578.553,7.79938e-05
578.653,7.5154e-05
578.753,7.24106e-05
578.853,6.97607e-05
578.953,6.72013e-05
579.053,6.47296e-05
579.153,6.23428e-05
579.253,6.00382e-05
579.353,5.78133e-05
579.453,5.56655e-05
579.553,5.35923e-05
579.653,5.15914e-05
579.753,4.96604e-05
579.853,4.77971e-05
579.953,4.59993e-05
580.053,4.42648e-05
580.153,4.25917e-05
580.253,4.09778e-05
580.353,3.94214e-05
580.453,3.79204e-05
580.553,3.6473e-05
580.653,3.50776e-05
580.753,3.37322e-05
580.853,3.24354e-05
580.953,3.11854e-05
581.053,2.99807e-05
581.153,2.88198e-05
581.253,2.77011e-05
581.353,2.66234e-05
581.453,2.55851e-05
581.553,2.45849e-05
581.653,2.36216e-05
581.753,2.26938e-05
581.853,2.18004e-05
581.953,2.09401e-05
582.053,2.01119e-05
582.153,1.93145e-05
582.253,1.8547e-05
582.353,1.78083e-05
582.453,1.70973e-05
582.553,1.64132e-05
582.653,1.57549e-05
582.753,1.51216e-05
582.853,1.45123e-05
582.953,1.39262e-05
583.053,1.33626e-05
583.153,1.28205e-05
583.253,1.22992e-05
583.353,1.1798e-05
583.453,1.13161e-05
583.553,1.08529e-05
583.653,1.04076e-05
583.753,9.97961e-06
583.853,9.56832e-06
583.953,9.1731e-06
584.053,8.79336e-06
584.153,8.42853e-06
584.253,8.07806e-06
584.353,7.74142e-06
584.453,7.4181e-06
584.553,7.10759e-06
584.653,6.80943e-06
584.753,6.52315e-06
584.853,6.24831e-06
584.953,5.98447e-06
585.053,5.73122e-06
585.153,5.48816e-06
585.253,5.2549e-06
585.353,5.03108e-06
585.453,4.81632e-06
585.553,4.61029e-06
585.653,4.41265e-06
585.753,4.22308e-06
585.853,4.04126e-06
585.953,3.8669e-06
586.053,3.6997e-06
586.153,3.5394e-06
586.253,3.38571e-06
586.353,3.23839e-06
586.453,3.09718e-06
586.553,2.96184e-06
586.653,2.83214e-06
586.753,2.70787e-06
586.853,2.5888e-06
586.953,2.47472e-06
587.053,2.36545e-06
587.153,2.26078e-06
587.253,2.16054e-06
587.353,2.06454e-06
587.453,1.97262e-06
587.553,1.88461e-06
587.653,1.80036e-06
587.753,1.7197e-06
587.853,1.6425e-06
587.953,1.56862e-06
588.053,1.49792e-06
588.153,1.43026e-06
588.253,1.36553e-06
588.353,1.30361e-06
588.453,1.24437e-06
588.553,1.18771e-06
588.653,1.13352e-06
588.753,1.0817e-06
588.853,1.03215e-06
588.953,9.84774e-07
589.053,9.39483e-07
589.153,8.96189e-07
589.253,8.54808e-07
589.353,8.15259e-07
589.453,7.77465e-07
589.553,7.41353e-07
589.653,7.06849e-07
589.753,6.73887e-07
589.853,6.424e-07
589.953,6.12326e-07
590.053,5.83603e-07
590.153,5.56174e-07
590.253,5.29984e-07
590.353,5.04978e-07
590.453,4.81106e-07
590.553,4.58318e-07
590.653,4.36568e-07
590.753,4.1581e-07
590.853,3.96001e-07
590.953,3.77099e-07
591.053,3.59065e-07
591.153,3.41861e-07
591.253,3.2545e-07
591.353,3.09797e-07
591.453,2.94868e-07
591.553,2.80632e-07
591.653,2.67057e-07
591.753,2.54115e-07
591.853,2.41776e-07
591.953,2.30015e-07
592.053,2.18805e-07
592.153,2.08121e-07
592.253,1.9794e-07
592.353,1.88238e-07
592.453,1.78995e-07
592.553,1.7019e-07
592.653,1.61802e-07
592.753,1.53813e-07
592.853,1.46204e-07
592.953,1.38958e-07
593.053,1.32059e-07
593.153,1.2549e-07
593.253,1.19236e-07
593.353,1.13284e-07
593.453,1.07618e-07
593.553,1.02225e-07
593.653,9.70936e-08
593.753,9.22108e-08
593.853,8.75652e-08
593.953,8.31456e-08
594.053,7.89415e-08
594.153,7.49427e-08
594.253,7.11397e-08
594.353,6.75232e-08
594.453,6.40843e-08
594.553,6.08148e-08
594.653,5.77065e-08
594.753,5.47519e-08
594.853,5.19435e-08
594.953,4.92744e-08
595.053,4.6738e-08
595.153,4.43279e-08
595.253,4.2038e-08
595.353,3.98626e-08
595.453,3.77962e-08
595.553,3.58334e-08
595.653,3.39693e-08
595.753,3.2199e-08
595.853,3.05181e-08
595.953,2.89222e-08
596.053,2.74071e-08
596.153,2.59688e-08
596.253,2.46037e-08
596.353,2.33081e-08
596.453,2.20786e-08
596.553,2.09119e-08
596.653,1.9805e-08
596.753,1.87549e-08
596.853,1.77587e-08
596.953,1.68139e-08
597.053,1.59178e-08
597.153,1.5068e-08
597.253,1.42622e-08
597.353,1.34982e-08
597.453,1.27738e-08
597.553,1.20872e-08
597.653,1.14364e-08
597.753,1.08197e-08
597.853,1.02351e-08
597.953,9.68127e-09
598.053,9.15649e-09
598.153,8.65933e-09
598.253,8.18838e-09
598.353,7.74229e-09
598.453,7.31981e-09
598.553,6.91971e-09
598.653,6.54085e-09
598.753,6.18215e-09
598.853,5.84255e-09
598.953,5.52108e-09
599.053,5.21679e-09
599.153,4.9288e-09
599.253,4.65626e-09
599.353,4.39837e-09
599.453,4.15437e-09
599.553,3.92352e-09
599.653,3.70514e-09
599.753,3.49859e-09
599.853,3.30323e-09
599.953,3.11848e-09
600.053,2.94378e-09
600.153,2.7786e-09
600.253,2.62243e-09
600.353,2.47481e-09
600.453,2.33527e-09
600.553,2.20339e-09
600.653,2.07875e-09
600.753,1.96098e-09
600.853,1.8497e-09
600.953,1.74457e-09
601.053,1.64526e-09
601.153,1.55145e-09
601.253,1.46285e-09
601.353,1.37917e-09
601.453,1.30016e-09
601.553,1.22556e-09
601.653,1.15512e-09
601.753,1.08863e-09
601.853,1.02587e-09
601.953,9.66634e-10
602.053,9.1073e-10
602.153,8.57977e-10
602.253,8.08203e-10
602.353,7.61242e-10
602.453,7.16942e-10
602.553,6.75154e-10
602.653,6.35741e-10
602.753,5.98572e-10
602.853,5.63521e-10
602.953,5.30472e-10
603.053,4.99313e-10
603.153,4.6994e-10
603.253,4.42251e-10
603.353,4.16154e-10
603.453,3.9156e-10
603.553,3.68383e-10
603.653,3.46545e-10
603.753,3.25971e-10
603.853,3.06588e-10
603.953,2.8833e-10
604.053,2.71134e-10
604.153,2.54938e-10
604.253,2.39687e-10
604.353,2.25327e-10
604.453,2.11807e-10
604.553,1.99078e-10
604.653,1.87097e-10
604.753,1.7582e-10
604.853,1.65207e-10
604.953,1.55219e-10
605.053,1.45822e-10
605.153,1.3698e-10
605.253,1.28661e-10
605.353,1.20837e-10
605.453,1.13477e-10
605.553,1.06556e-10
605.653,1.00046e-10
605.753,9.39259e-11
605.853,8.81714e-11
605.953,8.27615e-11
606.053,7.7676e-11
606.153,7.2896e-11
606.253,6.84036e-11
606.353,6.41819e-11
606.453,6.0215e-11
606.553,5.64878e-11
606.653,5.29862e-11
606.753,4.9697e-11
606.853,4.66074e-11
606.953,4.37057e-11
607.053,4.09807e-11
607.153,3.84219e-11
607.253,3.60195e-11
607.353,3.3764e-11
607.453,3.16467e-11
607.553,2.96593e-11
607.653,2.77941e-11
607.753,2.60436e-11
607.853,2.44011e-11
607.953,2.28599e-11
608.053,2.14141e-11
608.153,2.00577e-11
608.253,1.87855e-11
608.353,1.75923e-11
608.453,1.64732e-11
608.553,1.54239e-11
608.653,1.444e-11
608.753,1.35176e-11
608.853,1.26529e-11
608.953,1.18424e-11
609.053,1.10827e-11
609.153,1.03708e-11
609.253,9.70365e-12
609.353,9.07855e-12
609.453,8.49291e-12
609.553,7.94429e-12
609.653,7.43039e-12
609.753,6.94907e-12
609.853,6.4983e-12
609.953,6.07618e-12
610.053,5.68095e-12
610.153,5.31091e-12
610.253,4.96449e-12
610.353,4.64023e-12
610.453,4.33673e-12
610.553,4.05269e-12
610.653,3.78689e-12
610.753,3.53818e-12
610.853,3.30549e-12
610.953,3.0878e-12
611.053,2.88418e-12
611.153,2.69372e-12
611.253,2.5156e-12
611.353,2.34903e-12
611.453,2.19328e-12
611.553,2.04766e-12
611.653,1.91153e-12
611.753,1.78427e-12
611.853,1.66533e-12
611.953,1.55416e-12
612.053,1.45028e-12
612.153,1.35321e-12
612.253,1.26251e-12
612.353,1.17779e-12
612.453,1.09864e-12
612.553,1.02471e-12
612.653,9.55665e-13
612.753,8.91187e-13
612.853,8.30979e-13
612.953,7.74764e-13
613.053,7.22283e-13
613.153,6.73292e-13
613.253,6.27564e-13
613.353,5.84885e-13
613.453,5.45056e-13
613.553,5.07891e-13
613.653,4.73215e-13
613.753,4.40863e-13
613.853,4.10684e-13
613.953,3.82534e-13
614.053,3.56279e-13
614.153,3.31795e-13
614.253,3.08963e-13
614.353,2.87675e-13
614.453,2.67828e-13
614.553,2.49326e-13
614.653,2.3208e-13
614.753,2.16006e-13
614.853,2.01026e-13
614.953,1.87067e-13
615.053,1.74061e-13
615.153,1.61943e-13
615.253,1.50655e-13
615.353,1.4014e-13
615.453,1.30346e-13
615.553,1.21225e-13
615.653,1.12731e-13
615.753,1.04823e-13
615.853,9.74599e-14
615.953,9.06053e-14
616.053,8.42247e-14
616.153,7.8286e-14
616.253,7.2759e-14
616.353,6.76157e-14
616.453,6.28299e-14
616.553,5.83773e-14
616.653,5.4235e-14
616.753,5.03818e-14
616.853,4.67978e-14
616.953,4.34647e-14
617.053,4.0365e-14
617.153,3.74828e-14
617.253,3.48031e-14