File: mohanta_2013/no_buffer/raman/curve_total_fit.dat
497.553,1.2856
497.653,1.28571
497.753,1.28582
497.853,1.28593
497.953,1.28604
498.053,1.28616
498.153,1.28627
498.253,1.28639
498.353,1.2865
498.453,1.28662
498.553,1.28674
498.653,1.28686
498.753,1.28698
498.853,1.2871
498.953,1.28722
499.053,1.28735
499.153,1.28747
499.253,1.2876
499.353,1.28772
499.453,1.28785
499.553,1.28798
499.653,1.28811
499.753,1.28824
499.853,1.28837
499.953,1.2885
500.053,1.28864
500.153,1.28877
500.253,1.28891
500.353,1.28904
500.453,1.28918
500.553,1.28932
500.653,1.28946
500.753,1.2896
500.853,1.28974
500.953,1.28988
501.053,1.29002
501.153,1.29017
501.253,1.29031
501.353,1.29046
501.453,1.29061
501.553,1.29076
501.653,1.29091
501.753,1.29106
501.853,1.29121
501.953,1.29136
502.053,1.29151
502.153,1.29167
502.253,1.29183
502.353,1.29198
502.453,1.29214
502.553,1.2923
502.653,1.29246
502.753,1.29262
502.853,1.29278
502.953,1.29295
503.053,1.29311
503.153,1.29328
503.253,1.29344
503.353,1.29361
503.453,1.29378
503.553,1.29395
503.653,1.29412
503.753,1.29429
503.853,1.29447
503.953,1.29464
504.053,1.29482
504.153,1.29499
504.253,1.29517
504.353,1.29535
504.453,1.29553
504.553,1.29571
504.653,1.29589
504.753,1.29607
504.853,1.29626
504.953,1.29644
505.053,1.29663
505.153,1.29682
505.253,1.29701
505.353,1.2972
505.453,1.29739
505.553,1.29758
505.653,1.29777
505.753,1.29796
505.853,1.29816
505.953,1.29836
506.053,1.29855
506.153,1.29875
506.253,1.29895
506.353,1.29915
506.453,1.29935
506.553,1.29956
506.653,1.29976
506.753,1.29996
506.853,1.30017
506.953,1.30038
507.053,1.30059
507.153,1.3008
507.253,1.30101
507.353,1.30122
507.453,1.30143
507.553,1.30164
507.653,1.30186
507.753,1.30207
507.853,1.30229
507.953,1.30251
508.053,1.30273
508.153,1.30295
508.253,1.30317
508.353,1.30339
508.453,1.30361
508.553,1.30384
508.653,1.30406
508.753,1.30429
508.853,1.30452
508.953,1.30475
509.053,1.30498
509.153,1.30521
509.253,1.30544
509.353,1.30567
509.453,1.3059
509.553,1.30614
509.653,1.30637
509.753,1.30661
509.853,1.30685
509.953,1.30709
510.053,1.30733
510.153,1.30757
510.253,1.30781
510.353,1.30805
510.453,1.3083
510.553,1.30854
510.653,1.30879
510.753,1.30903
510.853,1.30928
510.953,1.30953
511.053,1.30978
511.153,1.31003
511.253,1.31028
511.353,1.31053
511.453,1.31079
511.553,1.31104
511.653,1.31129
511.753,1.31155
511.853,1.31181
511.953,1.31207
512.053,1.31232
512.153,1.31258
512.253,1.31284
512.353,1.31311
512.453,1.31337
512.553,1.31363
512.653,1.31389
512.753,1.31416
512.853,1.31443
512.953,1.31469
513.053,1.31496
513.153,1.31523
513.253,1.3155
513.353,1.31577
513.453,1.31604
513.553,1.31631
513.653,1.31658
513.753,1.31685
513.853,1.31713
513.953,1.3174
514.053,1.31767
514.153,1.31795
514.253,1.31823
514.353,1.3185
514.453,1.31878
514.553,1.31906
514.653,1.31934
514.753,1.31962
514.853,1.3199
514.953,1.32018
515.053,1.32046
515.153,1.32075
515.253,1.32103
515.353,1.32131
515.453,1.3216
515.553,1.32188
515.653,1.32217
515.753,1.32245
515.853,1.32274
515.953,1.32303
516.053,1.32332
516.153,1.3236
516.253,1.32389
516.353,1.32418
516.453,1.32447
516.553,1.32476
516.653,1.32505
516.753,1.32535
516.853,1.32564
516.953,1.32593
517.053,1.32622
517.153,1.32652
517.253,1.32681
517.353,1.3271
517.453,1.3274
517.553,1.32769
517.653,1.32799
517.753,1.32828
517.853,1.32858
517.953,1.32887
518.053,1.32917
518.153,1.32947
518.253,1.32976
518.353,1.33006
518.453,1.33036
518.553,1.33066
518.653,1.33095
518.753,1.33125
518.853,1.33155
518.953,1.33185
519.053,1.33215
519.153,1.33245
519.253,1.33275
519.353,1.33305
519.453,1.33335
519.553,1.33365
519.653,1.33395
519.753,1.33424
519.853,1.33454
519.953,1.33484
520.053,1.33514
520.153,1.33544
520.253,1.33574
520.353,1.33604
520.453,1.33634
520.553,1.33664
520.653,1.33694
520.753,1.33724
520.853,1.33754
520.953,1.33784
521.053,1.33814
521.153,1.33844
521.253,1.33874
521.353,1.33904
521.453,1.33934
521.553,1.33964
521.653,1.33994
521.753,1.34024
521.853,1.34054
521.953,1.34084
522.053,1.34114
522.153,1.34143
522.253,1.34173
522.353,1.34203
522.453,1.34233
522.553,1.34262
522.653,1.34292
522.753,1.34322
522.853,1.34351
522.953,1.34381
523.053,1.3441
523.153,1.3444
523.253,1.34469
523.353,1.34499
523.453,1.34528
523.553,1.34557
523.653,1.34587
523.753,1.34616
523.853,1.34645
523.953,1.34674
524.053,1.34704
524.153,1.34733
524.253,1.34762
524.353,1.34791
524.453,1.34819
524.553,1.34848
524.653,1.34877
524.753,1.34906
524.853,1.34935
524.953,1.34963
525.053,1.34992
525.153,1.3502
525.253,1.35049
525.353,1.35077
525.453,1.35106
525.553,1.35134
525.653,1.35162
525.753,1.3519
525.853,1.35218
525.953,1.35246
526.053,1.35274
526.153,1.35302
526.253,1.3533
526.353,1.35357
526.453,1.35385
526.553,1.35413
526.653,1.3544
526.753,1.35468
526.853,1.35495
526.953,1.35522
527.053,1.35549
527.153,1.35576
527.253,1.35603
527.353,1.3563
527.453,1.35657
527.553,1.35684
527.653,1.35711
527.753,1.35737
527.853,1.35764
527.953,1.3579
528.053,1.35816
528.153,1.35843
528.253,1.35869
528.353,1.35895
528.453,1.35921
528.553,1.35947
528.653,1.35973
528.753,1.35998
528.853,1.36024
528.953,1.3605
529.053,1.36075
529.153,1.361
529.253,1.36126
529.353,1.36151
529.453,1.36176
529.553,1.36201
529.653,1.36226
529.753,1.36251
529.853,1.36276
529.953,1.363
530.053,1.36325
530.153,1.36349
530.253,1.36374
530.353,1.36398
530.453,1.36422
530.553,1.36446
530.653,1.3647
530.753,1.36494
530.853,1.36518
530.953,1.36542
531.053,1.36566
531.153,1.36589
531.253,1.36613
531.353,1.36636
531.453,1.3666
531.553,1.36683
531.653,1.36706
531.753,1.36729
531.853,1.36752
531.953,1.36775
532.053,1.36798
532.153,1.36821
532.253,1.36843
532.353,1.36866
532.453,1.36889
532.553,1.36911
532.653,1.36934
532.753,1.36956
532.853,1.36978
532.953,1.37
533.053,1.37023
533.153,1.37045
533.253,1.37067
533.353,1.37089
533.453,1.37111
533.553,1.37132
533.653,1.37154
533.753,1.37176
533.853,1.37198
533.953,1.37219
534.053,1.37241
534.153,1.37263
534.253,1.37284
534.353,1.37306
534.453,1.37327
534.553,1.37348
534.653,1.3737
534.753,1.37391
534.853,1.37412
534.953,1.37434
535.053,1.37455
535.153,1.37476
535.253,1.37497
535.353,1.37519
535.453,1.3754
535.553,1.37561
535.653,1.37582
535.753,1.37603
535.853,1.37625
535.953,1.37646
536.053,1.37667
536.153,1.37688
536.253,1.3771
536.353,1.37731
536.453,1.37752
536.553,1.37773
536.653,1.37795
536.753,1.37816
536.853,1.37838
536.953,1.37859
537.053,1.37881
537.153,1.37902
537.253,1.37924
537.353,1.37945
537.453,1.37967
537.553,1.37989
537.653,1.38011
537.753,1.38033
537.853,1.38055
537.953,1.38077
538.053,1.38099
538.153,1.38121
538.253,1.38144
538.353,1.38166
538.453,1.38189
538.553,1.38211
538.653,1.38234
538.753,1.38257
538.853,1.3828
538.953,1.38304
539.053,1.38327
539.153,1.3835
539.253,1.38374
539.353,1.38398
539.453,1.38422
539.553,1.38446
539.653,1.3847
539.753,1.38495
539.853,1.38519
539.953,1.38544
540.053,1.38569
540.153,1.38594
540.253,1.38618
540.353,1.38641
540.453,1.38664
540.553,1.38687
540.653,1.38709
540.753,1.3873
540.853,1.38752
540.953,1.38772
541.053,1.38793
541.153,1.38813
541.253,1.38832
541.353,1.38851
541.453,1.3887
541.553,1.38888
541.653,1.38906
541.753,1.38923
541.853,1.38941
541.953,1.38957
542.053,1.38974
542.153,1.3899
542.253,1.39006
542.353,1.39021
542.453,1.39037
542.553,1.39052
542.653,1.39066
542.753,1.39081
542.853,1.39095
542.953,1.39109
543.053,1.39123
543.153,1.39136
543.253,1.39149
543.353,1.39163
543.453,1.39176
543.553,1.39189
543.653,1.39201
543.753,1.39214
543.853,1.39226
543.953,1.39239
544.053,1.39251
544.153,1.39264
544.253,1.39276
544.353,1.39288
544.453,1.393
544.553,1.39313
544.653,1.39325
544.753,1.39337
544.853,1.39349
544.953,1.39362
545.053,1.39374
545.153,1.39387
545.253,1.394
545.353,1.39412
545.453,1.39425
545.553,1.39439
545.653,1.39452
545.753,1.39465
545.853,1.39479
545.953,1.39493
546.053,1.39507
546.153,1.39522
546.253,1.39537
546.353,1.39552
546.453,1.39567
546.553,1.39583
546.653,1.39599
546.753,1.39615
546.853,1.39632
546.953,1.39649
547.053,1.39666
547.153,1.39684
547.253,1.39703
547.353,1.39722
547.453,1.39741
547.553,1.39761
547.653,1.39781
547.753,1.39802
547.853,1.39823
547.953,1.39845
548.053,1.39868
548.153,1.39891
548.253,1.39914
548.353,1.39939
548.453,1.39963
548.553,1.39989
548.653,1.40015
548.753,1.40042
548.853,1.40069
548.953,1.40097
549.053,1.40126
549.153,1.40155
549.253,1.40186
549.353,1.40217
549.453,1.40248
549.553,1.40281
549.653,1.40314
549.753,1.40348
549.853,1.40383
549.953,1.40418
550.053,1.40454
550.153,1.40492
550.253,1.40529
550.353,1.40568
550.453,1.40608
550.553,1.40648
550.653,1.4069
550.753,1.40732
550.853,1.40775
550.953,1.40819
551.053,1.40864
551.153,1.40909
551.253,1.40956
551.353,1.41003
551.453,1.41052
551.553,1.41101
551.653,1.41151
551.753,1.41202
551.853,1.41254
551.953,1.41307
552.053,1.41361
552.153,1.41416
552.253,1.41472
552.353,1.41528
552.453,1.41586
552.553,1.41645
552.653,1.41704
552.753,1.41764
552.853,1.41826
552.953,1.41888
553.053,1.41951
553.153,1.42015
553.253,1.4208
553.353,1.42146
553.453,1.42213
553.553,1.42281
553.653,1.4235
553.753,1.42419
553.853,1.4249
553.953,1.42561
554.053,1.42633
554.153,1.42707
554.253,1.42781
554.353,1.42856
554.453,1.42931
554.553,1.43008
554.653,1.43085
554.753,1.43164
554.853,1.43243
554.953,1.43323
555.053,1.43404
555.153,1.43485
555.253,1.43568
555.353,1.43651
555.453,1.43735
555.553,1.4382
555.653,1.43905
555.753,1.43991
555.853,1.44078
555.953,1.44166
556.053,1.44254
556.153,1.44343
556.253,1.44433
556.353,1.44523
556.453,1.44614
556.553,1.44706
556.653,1.44798
556.753,1.44891
556.853,1.44984
556.953,1.45078
557.053,1.45172
557.153,1.45267
557.253,1.45363
557.353,1.45458
557.453,1.45555
557.553,1.45652
557.653,1.45749
557.753,1.45847
557.853,1.45945
557.953,1.46043
558.053,1.46142
558.153,1.46241
558.253,1.46341
558.353,1.4644
558.453,1.4654
558.553,1.46641
558.653,1.46741
558.753,1.46842
558.853,1.46943
558.953,1.47044
559.053,1.47145
559.153,1.47246
559.253,1.47347
559.353,1.47449
559.453,1.4755
559.553,1.47652
559.653,1.47753
559.753,1.47855
559.853,1.47956
559.953,1.48058
560.053,1.48159
560.153,1.4826
560.253,1.48361
560.353,1.48462
560.453,1.48562
560.553,1.48663
560.653,1.48763
560.753,1.48863
560.853,1.48962
560.953,1.49062
561.053,1.49161
561.153,1.49259
561.253,1.49357
561.353,1.49455
561.453,1.49553
561.553,1.49649
561.653,1.49746
561.753,1.49842
561.853,1.49937
561.953,1.50032
562.053,1.50126
562.153,1.50219
562.253,1.50312
562.353,1.50405
562.453,1.50496
562.553,1.50587
562.653,1.50677
562.753,1.50767
562.853,1.50855
562.953,1.50943
563.053,1.5103
563.153,1.51116
563.253,1.51201
563.353,1.51285
563.453,1.51369
563.553,1.51451
563.653,1.51533
563.753,1.51613
563.853,1.51693
563.953,1.51771
564.053,1.51849
564.153,1.51925
564.253,1.52
564.353,1.52074
564.453,1.52147
564.553,1.52219
564.653,1.52289
564.753,1.52359
564.853,1.52427
564.953,1.52494
565.053,1.52559
565.153,1.52624
565.253,1.52687
565.353,1.52748
565.453,1.52809
565.553,1.52868
565.653,1.52925
565.753,1.52982
565.853,1.53036
565.953,1.5309
566.053,1.53142
566.153,1.53192
566.253,1.53241
566.353,1.53289
566.453,1.53335
566.553,1.53379
566.653,1.53422
566.753,1.53464
566.853,1.53504
566.953,1.53542
567.053,1.53579
567.153,1.53614
567.253,1.53647
567.353,1.53679
567.453,1.53709
567.553,1.53738
567.653,1.53765
567.753,1.5379
567.853,1.53814
567.953,1.53835
568.053,1.53856
568.153,1.53874
568.253,1.53891
568.353,1.53906
568.453,1.53919
568.553,1.53931
568.653,1.53941
568.753,1.53949
568.853,1.53955
568.953,1.5396
569.053,1.53963
569.153,1.53964
569.253,1.53963
569.353,1.53961
569.453,1.53956
569.553,1.5395
569.653,1.53942
569.753,1.53931
569.853,1.53919
569.953,1.53904
570.053,1.53887
570.153,1.53868
570.253,1.53847
570.353,1.53824
570.453,1.53798
570.553,1.53771
570.653,1.53741
570.753,1.53709
570.853,1.53676
570.953,1.5364
571.053,1.53602
571.153,1.53562
571.253,1.5352
571.353,1.53476
571.453,1.5343
571.553,1.53381
571.653,1.53331
571.753,1.53279
571.853,1.53225
571.953,1.53168
572.053,1.5311
572.153,1.5305
572.253,1.52988
572.353,1.52923
572.453,1.52857
572.553,1.52789
572.653,1.5272
572.753,1.52648
572.853,1.52574
572.953,1.52499
573.053,1.52421
573.153,1.52342
573.253,1.52261
573.353,1.52178
573.453,1.52094
573.553,1.52008
573.653,1.5192
573.753,1.5183
573.853,1.51739
573.953,1.51645
574.053,1.51551
574.153,1.51454
574.253,1.51357
574.353,1.51257
574.453,1.51156
574.553,1.51053
574.653,1.50949
574.753,1.50844
574.853,1.50737
574.953,1.50628
575.053,1.50518
575.153,1.50407
575.253,1.50294
575.353,1.5018
575.453,1.50065
575.553,1.49948
575.653,1.4983
575.753,1.49711
575.853,1.49591
575.953,1.49469
576.053,1.49347
576.153,1.49223
576.253,1.49098
576.353,1.48972
576.453,1.48845
576.553,1.48716
576.653,1.48587
576.753,1.48457
576.853,1.48326
576.953,1.48194
577.053,1.48061
577.153,1.47928
577.253,1.47793
577.353,1.47658
577.453,1.47522
577.553,1.47385
577.653,1.47247
577.753,1.47109
577.853,1.4697
577.953,1.4683
578.053,1.4669
578.153,1.46549
578.253,1.46408
578.353,1.46266
578.453,1.46124
578.553,1.45981
578.653,1.45837
578.753,1.45694
578.853,1.4555
578.953,1.45405
579.053,1.4526
579.153,1.45115
579.253,1.4497
579.353,1.44824
579.453,1.44678
579.553,1.44532
579.653,1.44386
579.753,1.44239
579.853,1.44093
579.953,1.43946
580.053,1.43799
580.153,1.43652
580.253,1.43505
580.353,1.43359
580.453,1.43212
580.553,1.43065
580.653,1.42918
580.753,1.42772
580.853,1.42625
580.953,1.42479
581.053,1.42333
581.153,1.42187
581.253,1.42041
581.353,1.41896
581.453,1.4175
581.553,1.41605
581.653,1.41461
581.753,1.41316
581.853,1.41172
581.953,1.41029
582.053,1.40885
582.153,1.40742
582.253,1.406
582.353,1.40458
582.453,1.40316
582.553,1.40175
582.653,1.40035
582.753,1.39895
582.853,1.39755
582.953,1.39616
583.053,1.39478
583.153,1.3934
583.253,1.39203
583.353,1.39066
583.453,1.3893
583.553,1.38795
583.653,1.3866
583.753,1.38526
583.853,1.38393
583.953,1.3826
584.053,1.38128
584.153,1.37997
584.253,1.37867
584.353,1.37737
584.453,1.37608
584.553,1.3748
584.653,1.37353
584.753,1.37226
584.853,1.37101
584.953,1.36976
585.053,1.36852
585.153,1.36729
585.253,1.36607
585.353,1.36485
585.453,1.36365
585.553,1.36245
585.653,1.36126
585.753,1.36008
585.853,1.35891
585.953,1.35775
586.053,1.3566
586.153,1.35546
586.253,1.35433
586.353,1.3532
586.453,1.35209
586.553,1.35099
586.653,1.34989
586.753,1.34881
586.853,1.34773
586.953,1.34666
587.053,1.34561
587.153,1.34456
587.253,1.34353
587.353,1.3425
587.453,1.34148
587.553,1.34047
587.653,1.33948
587.753,1.33849
587.853,1.33751
587.953,1.33655
588.053,1.33559
588.153,1.33464
588.253,1.3337
588.353,1.33277
588.453,1.33186
588.553,1.33095
588.653,1.33005
588.753,1.32916
588.853,1.32828
588.953,1.32742
589.053,1.32656
589.153,1.32571
589.253,1.32487
589.353,1.32404
589.453,1.32322
589.553,1.32241
589.653,1.32161
589.753,1.32082
589.853,1.32004
589.953,1.31927
590.053,1.31851
590.153,1.31776
590.253,1.31702
590.353,1.31628
590.453,1.31556
590.553,1.31485
590.653,1.31414
590.753,1.31345
590.853,1.31276
590.953,1.31209
591.053,1.31142
591.153,1.31076
591.253,1.31011
591.353,1.30947
591.453,1.30884
591.553,1.30822
591.653,1.3076
591.753,1.307
591.853,1.3064
591.953,1.30581
592.053,1.30523
592.153,1.30466
592.253,1.3041
592.353,1.30355
592.453,1.303
592.553,1.30246
592.653,1.30193
592.753,1.30141
592.853,1.3009
592.953,1.30039
593.053,1.2999
593.153,1.29941
593.253,1.29893
593.353,1.29845
593.453,1.29798
593.553,1.29752
593.653,1.29707
593.753,1.29663
593.853,1.29619
593.953,1.29576
594.053,1.29534
594.153,1.29492
594.253,1.29451
594.353,1.29411
594.453,1.29372
594.553,1.29333
594.653,1.29295
594.753,1.29257
594.853,1.2922
594.953,1.29184
595.053,1.29149
595.153,1.29114
595.253,1.29079
595.353,1.29046
595.453,1.29012
595.553,1.2898
595.653,1.28948
595.753,1.28917
595.853,1.28886
595.953,1.28856
596.053,1.28826
596.153,1.28797
596.253,1.28768
596.353,1.2874
596.453,1.28713
596.553,1.28686
596.653,1.28659
596.753,1.28634
596.853,1.28608
596.953,1.28583
597.053,1.28559
597.153,1.28535
597.253,1.28511
597.353,1.28488
597.453,1.28466
597.553,1.28444
597.653,1.28422
597.753,1.28401
597.853,1.2838
597.953,1.28359
598.053,1.28339
598.153,1.2832
598.253,1.28301
598.353,1.28282
598.453,1.28264
598.553,1.28246
598.653,1.28228
598.753,1.28211
598.853,1.28194
598.953,1.28177
599.053,1.28161
599.153,1.28145
599.253,1.2813
599.353,1.28115
599.453,1.281
599.553,1.28085
599.653,1.28071
599.753,1.28057
599.853,1.28044
599.953,1.28031
600.053,1.28018
600.153,1.28005
600.253,1.27993
600.353,1.27981
600.453,1.27969
600.553,1.27957
600.653,1.27946
600.753,1.27935
600.853,1.27924
600.953,1.27914
601.053,1.27903
601.153,1.27893
601.253,1.27884
601.353,1.27874
601.453,1.27865
601.553,1.27856
601.653,1.27847
601.753,1.27838
601.853,1.27829
601.953,1.27821
602.053,1.27813
602.153,1.27805
602.253,1.27798
602.353,1.2779
602.453,1.27783
602.553,1.27776
602.653,1.27769
602.753,1.27762
602.853,1.27755
602.953,1.27749
603.053,1.27742
603.153,1.27736
603.253,1.2773
603.353,1.27725
603.453,1.27719
603.553,1.27713
603.653,1.27708
603.753,1.27703
603.853,1.27698
603.953,1.27693
604.053,1.27688
604.153,1.27683
604.253,1.27678
604.353,1.27674
604.453,1.2767
604.553,1.27665
604.653,1.27661
604.753,1.27657
604.853,1.27653
604.953,1.27649
605.053,1.27646
605.153,1.27642
605.253,1.27639
605.353,1.27635
605.453,1.27632
605.553,1.27629
605.653,1.27625
605.753,1.27622
605.853,1.27619
605.953,1.27617
606.053,1.27614
606.153,1.27611
606.253,1.27608
606.353,1.27606
606.453,1.27603
606.553,1.27601
606.653,1.27598
606.753,1.27596
606.853,1.27594
606.953,1.27592
607.053,1.2759
607.153,1.27588
607.253,1.27586
607.353,1.27584
607.453,1.27582
607.553,1.2758
607.653,1.27578
607.753,1.27576
607.853,1.27575
607.953,1.27573
608.053,1.27572
608.153,1.2757
608.253,1.27569
608.353,1.27567
608.453,1.27566
608.553,1.27564
608.653,1.27563
608.753,1.27562
608.853,1.27561
608.953,1.27559
609.053,1.27558
609.153,1.27557
609.253,1.27556
609.353,1.27555
609.453,1.27554
609.553,1.27553
609.653,1.27552
609.753,1.27551
609.853,1.2755
609.953,1.27549
610.053,1.27549
610.153,1.27548
610.253,1.27547
610.353,1.27546
610.453,1.27545
610.553,1.27545
610.653,1.27544
610.753,1.27543
610.853,1.27543
610.953,1.27542
611.053,1.27541
611.153,1.27541
611.253,1.2754
611.353,1.2754
611.453,1.27539
611.553,1.27539
611.653,1.27538
611.753,1.27538
611.853,1.27537
611.953,1.27537
612.053,1.27536
612.153,1.27536
612.253,1.27535
612.353,1.27535
612.453,1.27535
612.553,1.27534
612.653,1.27534
612.753,1.27534
612.853,1.27533
612.953,1.27533
613.053,1.27533
613.153,1.27532
613.253,1.27532
613.353,1.27532
613.453,1.27532
613.553,1.27531
613.653,1.27531
613.753,1.27531
613.853,1.27531
613.953,1.2753
614.053,1.2753
614.153,1.2753
614.253,1.2753
614.353,1.27529
614.453,1.27529
614.553,1.27529
614.653,1.27529
614.753,1.27529
614.853,1.27529
614.953,1.27528
615.053,1.27528
615.153,1.27528
615.253,1.27528
615.353,1.27528
615.453,1.27528
615.553,1.27528
615.653,1.27527
615.753,1.27527
615.853,1.27527
615.953,1.27527
616.053,1.27527
616.153,1.27527
616.253,1.27527
616.353,1.27527
616.453,1.27527
616.553,1.27527
616.653,1.27526
616.753,1.27526
616.853,1.27526
616.953,1.27526
617.053,1.27526
617.153,1.27526
617.253,1.27526