File: mohanta_2013/no_buffer/raman/curve_2_fit.dat
497.553,2.47739e-09
497.653,2.60805e-09
497.753,2.74541e-09
497.853,2.88979e-09
497.953,3.04155e-09
498.053,3.20105e-09
498.153,3.36867e-09
498.253,3.54481e-09
498.353,3.7299e-09
498.453,3.92438e-09
498.553,4.12869e-09
498.653,4.34334e-09
498.753,4.56881e-09
498.853,4.80565e-09
498.953,5.0544e-09
499.053,5.31564e-09
499.153,5.58999e-09
499.253,5.87808e-09
499.353,6.18057e-09
499.453,6.49817e-09
499.553,6.83159e-09
499.653,7.18161e-09
499.753,7.54903e-09
499.853,7.93467e-09
499.953,8.33941e-09
500.053,8.76418e-09
500.153,9.20992e-09
500.253,9.67763e-09
500.353,1.01684e-08
500.453,1.06832e-08
500.553,1.12234e-08
500.653,1.179e-08
500.753,1.23843e-08
500.853,1.30076e-08
500.953,1.36613e-08
501.053,1.43469e-08
501.153,1.50658e-08
501.253,1.58196e-08
501.353,1.66099e-08
501.453,1.74384e-08
501.553,1.83069e-08
501.653,1.92174e-08
501.753,2.01716e-08
501.853,2.11718e-08
501.953,2.22199e-08
502.053,2.33183e-08
502.153,2.44692e-08
502.253,2.5675e-08
502.353,2.69384e-08
502.453,2.82619e-08
502.553,2.96483e-08
502.653,3.11005e-08
502.753,3.26215e-08
502.853,3.42144e-08
502.953,3.58825e-08
503.053,3.76293e-08
503.153,3.94583e-08
503.253,4.13732e-08
503.353,4.33779e-08
503.453,4.54765e-08
503.553,4.76733e-08
503.653,4.99726e-08
503.753,5.2379e-08
503.853,5.48974e-08
503.953,5.75327e-08
504.053,6.02903e-08
504.153,6.31754e-08
504.253,6.6194e-08
504.353,6.93517e-08
504.453,7.2655e-08
504.553,7.61101e-08
504.653,7.97238e-08
504.753,8.35031e-08
504.853,8.74553e-08
504.953,9.1588e-08
505.053,9.59091e-08
505.153,1.00427e-07
505.253,1.0515e-07
505.353,1.10087e-07
505.453,1.15248e-07
505.553,1.20643e-07
505.653,1.2628e-07
505.753,1.32172e-07
505.853,1.38329e-07
505.953,1.44762e-07
506.053,1.51483e-07
506.153,1.58505e-07
506.253,1.65841e-07
506.353,1.73504e-07
506.453,1.81508e-07
506.553,1.89868e-07
506.653,1.98598e-07
506.753,2.07715e-07
506.853,2.17235e-07
506.953,2.27175e-07
507.053,2.37553e-07
507.153,2.48387e-07
507.253,2.59697e-07
507.353,2.71502e-07
507.453,2.83823e-07
507.553,2.96683e-07
507.653,3.10103e-07
507.753,3.24106e-07
507.853,3.38718e-07
507.953,3.53964e-07
508.053,3.69869e-07
508.153,3.86461e-07
508.253,4.03768e-07
508.353,4.2182e-07
508.453,4.40648e-07
508.553,4.60283e-07
508.653,4.80759e-07
508.753,5.0211e-07
508.853,5.24372e-07
508.953,5.47581e-07
509.053,5.71776e-07
509.153,5.96998e-07
509.253,6.23288e-07
509.353,6.50689e-07
509.453,6.79247e-07
509.553,7.09006e-07
509.653,7.40017e-07
509.753,7.72328e-07
509.853,8.05993e-07
509.953,8.41065e-07
510.053,8.776e-07
510.153,9.15657e-07
510.253,9.55295e-07
510.353,9.96579e-07
510.453,1.03957e-06
510.553,1.08434e-06
510.653,1.13096e-06
510.753,1.1795e-06
510.853,1.23003e-06
510.953,1.28263e-06
511.053,1.33739e-06
511.153,1.39439e-06
511.253,1.45371e-06
511.353,1.51545e-06
511.453,1.57969e-06
511.553,1.64655e-06
511.653,1.7161e-06
511.753,1.78847e-06
511.853,1.86376e-06
511.953,1.94208e-06
512.053,2.02354e-06
512.153,2.10827e-06
512.253,2.19639e-06
512.353,2.28803e-06
512.453,2.38332e-06
512.553,2.48241e-06
512.653,2.58542e-06
512.753,2.69252e-06
512.853,2.80386e-06
512.953,2.91959e-06
513.053,3.03988e-06
513.153,3.1649e-06
513.253,3.29483e-06
513.353,3.42984e-06
513.453,3.57013e-06
513.553,3.7159e-06
513.653,3.86733e-06
513.753,4.02465e-06
513.853,4.18808e-06
513.953,4.35782e-06
514.053,4.53412e-06
514.153,4.71722e-06
514.253,4.90735e-06
514.353,5.10479e-06
514.453,5.30979e-06
514.553,5.52263e-06
514.653,5.74358e-06
514.753,5.97295e-06
514.853,6.21104e-06
514.953,6.45815e-06
515.053,6.71461e-06
515.153,6.98076e-06
515.253,7.25694e-06
515.353,7.54351e-06
515.453,7.84083e-06
515.553,8.14928e-06
515.653,8.46926e-06
515.753,8.80118e-06
515.853,9.14545e-06
515.953,9.50251e-06
516.053,9.8728e-06
516.153,1.02568e-05
516.253,1.06549e-05
516.353,1.10678e-05
516.453,1.14958e-05
516.553,1.19395e-05
516.653,1.23994e-05
516.753,1.28761e-05
516.853,1.33702e-05
516.953,1.38823e-05
517.053,1.44129e-05
517.153,1.49628e-05
517.253,1.55325e-05
517.353,1.61227e-05
517.453,1.67342e-05
517.553,1.73677e-05
517.653,1.80238e-05
517.753,1.87034e-05
517.853,1.94072e-05
517.953,2.0136e-05
518.053,2.08907e-05
518.153,2.16722e-05
518.253,2.24813e-05
518.353,2.33189e-05
518.453,2.4186e-05
518.553,2.50836e-05
518.653,2.60126e-05
518.753,2.6974e-05
518.853,2.7969e-05
518.953,2.89987e-05
519.053,3.00641e-05
519.153,3.11664e-05
519.253,3.23068e-05
519.353,3.34865e-05
519.453,3.47068e-05
519.553,3.59691e-05
519.653,3.72745e-05
519.753,3.86246e-05
519.853,4.00207e-05
519.953,4.14643e-05
520.053,4.29569e-05
520.153,4.45001e-05
520.253,4.60954e-05
520.353,4.77444e-05
520.453,4.94489e-05
520.553,5.12106e-05
520.653,5.30313e-05
520.753,5.49128e-05
520.853,5.68569e-05
520.953,5.88657e-05
521.053,6.09411e-05
521.153,6.30851e-05
521.253,6.52999e-05
521.353,6.75876e-05
521.453,6.99505e-05
521.553,7.23907e-05
521.653,7.49108e-05
521.753,7.7513e-05
521.853,8.01999e-05
521.953,8.29739e-05
522.053,8.58378e-05
522.153,8.87942e-05
522.253,9.18458e-05
522.353,9.49955e-05
522.453,9.82462e-05
522.553,0.000101601
522.653,0.000105062
522.753,0.000108634
522.853,0.00011232
522.953,0.000116121
523.053,0.000120043
523.153,0.000124089
523.253,0.000128262
523.353,0.000132565
523.453,0.000137004
523.553,0.00014158
523.653,0.000146299
523.753,0.000151165
523.853,0.000156181
523.953,0.000161352
524.053,0.000166683
524.153,0.000172177
524.253,0.000177839
524.353,0.000183675
524.453,0.000189688
524.553,0.000195885
524.653,0.000202269
524.753,0.000208846
524.853,0.000215622
524.953,0.000222602
525.053,0.000229791
525.153,0.000237196
525.253,0.000244821
525.353,0.000252674
525.453,0.000260759
525.553,0.000269085
525.653,0.000277656
525.753,0.00028648
525.853,0.000295563
525.953,0.000304912
526.053,0.000314534
526.153,0.000324437
526.253,0.000334627
526.353,0.000345113
526.453,0.000355903
526.553,0.000367003
526.653,0.000378422
526.753,0.000390169
526.853,0.000402251
526.953,0.000414678
527.053,0.000427458
527.153,0.000440601
527.253,0.000454115
527.353,0.00046801
527.453,0.000482296
527.553,0.000496982
527.653,0.000512079
527.753,0.000527597
527.853,0.000543546
527.953,0.000559937
528.053,0.000576781
528.153,0.00059409
528.253,0.000611874
528.353,0.000630145
528.453,0.000648915
528.553,0.000668197
528.653,0.000688002
528.753,0.000708344
528.853,0.000729234
528.953,0.000750688
529.053,0.000772717
529.153,0.000795335
529.253,0.000818557
529.353,0.000842397
529.453,0.000866869
529.553,0.000891988
529.653,0.00091777
529.753,0.000944228
529.853,0.000971381
529.953,0.000999242
530.053,0.00102783
530.153,0.00105716
530.253,0.00108725
530.353,0.00111811
530.453,0.00114977
530.553,0.00118224
530.653,0.00121554
530.753,0.00124969
530.853,0.0012847
530.953,0.00132061
531.053,0.00135742
531.153,0.00139515
531.253,0.00143383
531.353,0.00147348
531.453,0.00151412
531.553,0.00155576
531.653,0.00159844
531.753,0.00164217
531.853,0.00168697
531.953,0.00173288
532.053,0.0017799
532.153,0.00182807
532.253,0.00187741
532.353,0.00192795
532.453,0.0019797
532.553,0.0020327
532.653,0.00208696
532.753,0.00214252
532.853,0.00219941
532.953,0.00225764
533.053,0.00231724
533.153,0.00237825
533.253,0.0024407
533.353,0.0025046
533.453,0.00256999
533.553,0.0026369
533.653,0.00270536
533.753,0.00277539
533.853,0.00284704
533.953,0.00292033
534.053,0.00299529
534.153,0.00307195
534.253,0.00315035
534.353,0.00323052
534.453,0.00331249
534.553,0.0033963
534.653,0.00348198
534.753,0.00356957
534.853,0.00365909
534.953,0.0037506
535.053,0.00384411
535.153,0.00393968
535.253,0.00403734
535.353,0.00413712
535.453,0.00423906
535.553,0.0043432
535.653,0.00444958
535.753,0.00455824
535.853,0.00466922
535.953,0.00478257
536.053,0.00489831
536.153,0.00501649
536.253,0.00513716
536.353,0.00526035
536.453,0.00538611
536.553,0.00551449
536.653,0.00564552
536.753,0.00577925
536.853,0.00591572
536.953,0.00605498
537.053,0.00619708
537.153,0.00634206
537.253,0.00648996
537.353,0.00664084
537.453,0.00679475
537.553,0.00695172
537.653,0.0071118
537.753,0.00727506
537.853,0.00744152
537.953,0.00761126
538.053,0.0077843
538.153,0.00796072
538.253,0.00814054
538.353,0.00832383
538.453,0.00851064
538.553,0.00870103
538.653,0.00889503
538.753,0.0090927
538.853,0.00929411
538.953,0.0094993
539.053,0.00970832
539.153,0.00992123
539.253,0.0101381
539.353,0.0103589
539.453,0.0105838
539.553,0.0108129
539.653,0.011046
539.753,0.0112834
539.853,0.0115251
539.953,0.0117711
540.053,0.0120215
540.153,0.0122764
540.253,0.0125357
540.353,0.0127997
540.453,0.0130682
540.553,0.0133414
540.653,0.0136194
540.753,0.0139021
540.853,0.0141897
540.953,0.0144822
541.053,0.0147797
541.153,0.0150823
541.253,0.0153899
541.353,0.0157026
541.453,0.0160206
541.553,0.0163439
541.653,0.0166724
541.753,0.0170064
541.853,0.0173458
541.953,0.0176907
542.053,0.0180412
542.153,0.0183973
542.253,0.0187591
542.353,0.0191267
542.453,0.0195
542.553,0.0198792
542.653,0.0202643
542.753,0.0206555
542.853,0.0210526
542.953,0.0214559
543.053,0.0218653
543.153,0.022281
543.253,0.0227029
543.353,0.0231311
543.453,0.0235658
543.553,0.0240068
543.653,0.0244544
543.753,0.0249086
543.853,0.0253694
543.953,0.0258368
544.053,0.026311
544.153,0.026792
544.253,0.0272798
544.353,0.0277745
544.453,0.0282761
544.553,0.0287848
544.653,0.0293005
544.753,0.0298233
544.853,0.0303532
544.953,0.0308904
545.053,0.0314348
545.153,0.0319865
545.253,0.0325456
545.353,0.0331121
545.453,0.033686
545.553,0.0342674
545.653,0.0348564
545.753,0.0354529
545.853,0.0360571
545.953,0.036669
546.053,0.0372885
546.153,0.0379159
546.253,0.038551
546.353,0.0391939
546.453,0.0398447
546.553,0.0405035
546.653,0.0411701
546.753,0.0418448
546.853,0.0425274
546.953,0.0432181
547.053,0.0439169
547.153,0.0446238
547.253,0.0453388
547.353,0.046062
547.453,0.0467933
547.553,0.0475329
547.653,0.0482807
547.753,0.0490367
547.853,0.0498011
547.953,0.0505737
548.053,0.0513546
548.153,0.0521439
548.253,0.0529415
548.353,0.0537474
548.453,0.0545617
548.553,0.0553844
548.653,0.0562155
548.753,0.0570549
548.853,0.0579028
548.953,0.058759
549.053,0.0596237
549.153,0.0604967
549.253,0.0613781
549.353,0.0622679
549.453,0.0631661
549.553,0.0640726
549.653,0.0649876
549.753,0.0659108
549.853,0.0668424
549.953,0.0677823
550.053,0.0687305
550.153,0.069687
550.253,0.0706517
550.353,0.0716247
550.453,0.0726058
550.553,0.0735951
550.653,0.0745926
550.753,0.0755982
550.853,0.0766119
550.953,0.0776335
551.053,0.0786632
551.153,0.0797009
551.253,0.0807464
551.353,0.0817998
551.453,0.082861
551.553,0.08393
551.653,0.0850067
551.753,0.086091
551.853,0.0871829
551.953,0.0882824
552.053,0.0893893
552.153,0.0905036
552.253,0.0916253
552.353,0.0927542
552.453,0.0938903
552.553,0.0950335
552.653,0.0961838
552.753,0.097341
552.853,0.098505
552.953,0.0996759
553.053,0.100853
553.153,0.102038
553.253,0.103228
553.353,0.104425
553.453,0.105629
553.553,0.106839
553.653,0.108054
553.753,0.109276
553.853,0.110504
553.953,0.111737
554.053,0.112976
554.153,0.114221
554.253,0.115471
554.353,0.116727
554.453,0.117988
554.553,0.119253
554.653,0.120524
554.753,0.1218
554.853,0.12308
554.953,0.124365
555.053,0.125654
555.153,0.126947
555.253,0.128245
555.353,0.129547
555.453,0.130852
555.553,0.132161
555.653,0.133474
555.753,0.13479
555.853,0.13611
555.953,0.137432
556.053,0.138757
556.153,0.140085
556.253,0.141416
556.353,0.142749
556.453,0.144085
556.553,0.145422
556.653,0.146761
556.753,0.148102
556.853,0.149445
556.953,0.150789
557.053,0.152134
557.153,0.153481
557.253,0.154828
557.353,0.156175
557.453,0.157524
557.553,0.158872
557.653,0.16022
557.753,0.161569
557.853,0.162917
557.953,0.164264
558.053,0.165611
558.153,0.166957
558.253,0.168302
558.353,0.169646
558.453,0.170988
558.553,0.172328
558.653,0.173666
558.753,0.175003
558.853,0.176337
558.953,0.177668
559.053,0.178996
559.153,0.180322
559.253,0.181645
559.353,0.182964
559.453,0.184279
559.553,0.185591
559.653,0.186898
559.753,0.188201
559.853,0.1895
559.953,0.190794
560.053,0.192084
560.153,0.193368
560.253,0.194646
560.353,0.19592
560.453,0.197187
560.553,0.198448
560.653,0.199704
560.753,0.200952
560.853,0.202194
560.953,0.20343
561.053,0.204658
561.153,0.205878
561.253,0.207091
561.353,0.208297
561.453,0.209494
561.553,0.210684
561.653,0.211864
561.753,0.213037
561.853,0.2142
561.953,0.215354
562.053,0.216499
562.153,0.217635
562.253,0.218761
562.353,0.219877
562.453,0.220983
562.553,0.222078
562.653,0.223163
562.753,0.224237
562.853,0.2253
562.953,0.226352
563.053,0.227393
563.153,0.228422
563.253,0.22944
563.353,0.230445
563.453,0.231438
563.553,0.232419
563.653,0.233387
563.753,0.234343
563.853,0.235286
563.953,0.236215
564.053,0.237131
564.153,0.238034
564.253,0.238923
564.353,0.239799
564.453,0.24066
564.553,0.241507
564.653,0.242339
564.753,0.243158
564.853,0.243961
564.953,0.24475
565.053,0.245523
565.153,0.246282
565.253,0.247025
565.353,0.247752
565.453,0.248464
565.553,0.24916
565.653,0.24984
565.753,0.250504
565.853,0.251152
565.953,0.251784
566.053,0.252399
566.153,0.252997
566.253,0.253579
566.353,0.254144
566.453,0.254692
566.553,0.255223
566.653,0.255736
566.753,0.256233
566.853,0.256711
566.953,0.257173
567.053,0.257617
567.153,0.258043
567.253,0.258451
567.353,0.258841
567.453,0.259214
567.553,0.259568
567.653,0.259904
567.753,0.260223
567.853,0.260522
567.953,0.260804
568.053,0.261067
568.153,0.261312
568.253,0.261538
568.353,0.261745
568.453,0.261935
568.553,0.262105
568.653,0.262257
568.753,0.26239
568.853,0.262504
568.953,0.2626
569.053,0.262677
569.153,0.262735
569.253,0.262774
569.353,0.262794
569.453,0.262796
569.553,0.262775
569.653,0.262733
569.753,0.262668
569.853,0.262581
569.953,0.262472
570.053,0.262341
570.153,0.262187
570.253,0.262011
570.353,0.261814
570.453,0.261594
570.553,0.261352
570.653,0.261089
570.753,0.260804
570.853,0.260496
570.953,0.260168
571.053,0.259817
571.153,0.259446
571.253,0.259052
571.353,0.258638
571.453,0.258202
571.553,0.257745
571.653,0.257267
571.753,0.256769
571.853,0.256249
571.953,0.255709
572.053,0.255149
572.153,0.254568
572.253,0.253967
572.353,0.253346
572.453,0.252705
572.553,0.252044
572.653,0.251364
572.753,0.250664
572.853,0.249946
572.953,0.249208
573.053,0.248451
573.153,0.247676
573.253,0.246882
573.353,0.246069
573.453,0.245239
573.553,0.244391
573.653,0.243525
573.753,0.242642
573.853,0.241741
573.953,0.240823
574.053,0.239889
574.153,0.238938
574.253,0.23797
574.353,0.236987
574.453,0.235987
574.553,0.234972
574.653,0.233941
574.753,0.232895
574.853,0.231834
574.953,0.230759
575.053,0.229669
575.153,0.228565
575.253,0.227446
575.353,0.226315
575.453,0.225169
575.553,0.224011
575.653,0.222839
575.753,0.221655
575.853,0.220459
575.953,0.21925
576.053,0.21803
576.153,0.216798
576.253,0.215555
576.353,0.214301
576.453,0.213036
576.553,0.21176
576.653,0.210474
576.753,0.209179
576.853,0.207874
576.953,0.206559
577.053,0.205236
577.153,0.203903
577.253,0.202562
577.353,0.201213
577.453,0.199856
577.553,0.198491
577.653,0.197119
577.753,0.19574
577.853,0.194354
577.953,0.192962
578.053,0.191563
578.153,0.190158
578.253,0.188748
578.353,0.187332
578.453,0.185911
578.553,0.184485
578.653,0.183055
578.753,0.18162
578.853,0.180181
578.953,0.178739
579.053,0.177293
579.153,0.175844
579.253,0.174392
579.353,0.172937
579.453,0.17148
579.553,0.170021
579.653,0.16856
579.753,0.167098
579.853,0.165634
579.953,0.164169
580.053,0.162703
580.153,0.161236
580.253,0.15977
580.353,0.158303
580.453,0.156836
580.553,0.15537
580.653,0.153905
580.753,0.15244
580.853,0.150977
580.953,0.149514
581.053,0.148054
581.153,0.146595
581.253,0.145139
581.353,0.143685
581.453,0.142233
581.553,0.140784
581.653,0.139338
581.753,0.137895
581.853,0.136456
581.953,0.13502
582.053,0.133588
582.153,0.13216
582.253,0.130736
582.353,0.129317
582.453,0.127902
582.553,0.126492
582.653,0.125087
582.753,0.123687
582.853,0.122292
582.953,0.120903
583.053,0.119519
583.153,0.118141
583.253,0.11677
583.353,0.115404
583.453,0.114045
583.553,0.112692
583.653,0.111346
583.753,0.110006
583.853,0.108674
583.953,0.107349
584.053,0.10603
584.153,0.104719
584.253,0.103416
584.353,0.10212
584.453,0.100832
584.553,0.0995512
584.653,0.0982788
584.753,0.0970143
584.853,0.0957581
584.953,0.0945101
585.053,0.0932704
585.153,0.0920393
585.253,0.0908167
585.353,0.0896027
585.453,0.0883975
585.553,0.0872011
585.653,0.0860136
585.753,0.0848351
585.853,0.0836657
585.953,0.0825054
586.053,0.0813543
586.153,0.0802125
586.253,0.07908
586.353,0.0779569
586.453,0.0768432
586.553,0.075739
586.653,0.0746444
586.753,0.0735594
586.853,0.072484
586.953,0.0714182
587.053,0.0703622
587.153,0.0693159
587.253,0.0682794
587.353,0.0672527
587.453,0.0662359
587.553,0.0652288
587.653,0.0642317
587.753,0.0632444
587.853,0.0622671
587.953,0.0612996
588.053,0.0603421
588.153,0.0593945
588.253,0.0584568
588.353,0.0575291
588.453,0.0566113
588.553,0.0557034
588.653,0.0548055
588.753,0.0539174
588.853,0.0530392
588.953,0.052171
589.053,0.0513126
589.153,0.050464
589.253,0.0496253
589.353,0.0487964
589.453,0.0479772
589.553,0.0471679
589.653,0.0463682
589.753,0.0455783
589.853,0.044798
589.953,0.0440273
590.053,0.0432663
590.153,0.0425147
590.253,0.0417727
590.353,0.0410402
590.453,0.0403171
590.553,0.0396034
590.653,0.0388991
590.753,0.038204
590.853,0.0375182
590.953,0.0368415
591.053,0.036174
591.153,0.0355156
591.253,0.0348663
591.353,0.0342259
591.453,0.0335944
591.553,0.0329717
591.653,0.0323579
591.753,0.0317528
591.853,0.0311564
591.953,0.0305686
592.053,0.0299894
592.153,0.0294186
592.253,0.0288562
592.353,0.0283022
592.453,0.0277565
592.553,0.0272191
592.653,0.0266897
592.753,0.0261684
592.853,0.0256552
592.953,0.0251499
593.053,0.0246524
593.153,0.0241627
593.253,0.0236808
593.353,0.0232065
593.453,0.0227398
593.553,0.0222806
593.653,0.0218288
593.753,0.0213843
593.853,0.0209472
593.953,0.0205172
594.053,0.0200943
594.153,0.0196785
594.253,0.0192697
594.353,0.0188678
594.453,0.0184727
594.553,0.0180843
594.653,0.0177026
594.753,0.0173275
594.853,0.0169589
594.953,0.0165967
595.053,0.0162409
595.153,0.0158914
595.253,0.0155481
595.353,0.0152109
595.453,0.0148797
595.553,0.0145546
595.653,0.0142353
595.753,0.0139219
595.853,0.0136142
595.953,0.0133122
596.053,0.0130158
596.153,0.0127249
596.253,0.0124394
596.353,0.0121593
596.453,0.0118846
596.553,0.011615
596.653,0.0113506
596.753,0.0110913
596.853,0.010837
596.953,0.0105876
597.053,0.0103431
597.153,0.0101034
597.253,0.00986838
597.353,0.00963803
597.453,0.00941226
597.553,0.00919099
597.653,0.00897417
597.753,0.00876172
597.853,0.00855358
597.953,0.00834968
598.053,0.00814994
598.153,0.00795431
598.253,0.00776272
598.353,0.0075751
598.453,0.00739139
598.553,0.00721152
598.653,0.00703544
598.753,0.00686307
598.853,0.00669436
598.953,0.00652925
599.053,0.00636767
599.153,0.00620956
599.253,0.00605486
599.353,0.00590352
599.453,0.00575547
599.553,0.00561066
599.653,0.00546903
599.753,0.00533053
599.853,0.00519509
599.953,0.00506266
600.053,0.00493319
600.153,0.00480663
600.253,0.00468292
600.353,0.004562
600.453,0.00444383
600.553,0.00432836
600.653,0.00421553
600.753,0.00410529
600.853,0.00399759
600.953,0.0038924
601.053,0.00378964
601.153,0.00368929
601.253,0.0035913
601.353,0.00349561
601.453,0.00340218
601.553,0.00331096
601.653,0.00322192
601.753,0.00313501
601.853,0.00305019
601.953,0.00296741
602.053,0.00288663
602.153,0.00280781
602.253,0.00273092
602.353,0.0026559
602.453,0.00258273
602.553,0.00251136
602.653,0.00244175
602.753,0.00237387
602.853,0.00230769
602.953,0.00224316
603.053,0.00218025
603.153,0.00211892
603.253,0.00205915
603.353,0.00200089
603.453,0.00194411
603.553,0.00188879
603.653,0.00183489
603.753,0.00178237
603.853,0.00173121
603.953,0.00168137
604.053,0.00163284
604.153,0.00158557
604.253,0.00153953
604.353,0.00149471
604.453,0.00145107
604.553,0.00140858
604.653,0.00136722
604.753,0.00132697
604.853,0.00128779
604.953,0.00124966
605.053,0.00121256
605.153,0.00117646
605.253,0.00114133
605.353,0.00110717
605.453,0.00107393
605.553,0.0010416
605.653,0.00101016
605.753,0.000979592
605.853,0.000949864
605.953,0.00092096
606.053,0.00089286
606.153,0.000865544
606.253,0.000838993
606.353,0.000813188
606.453,0.000788109
606.553,0.000763739
606.653,0.00074006
606.753,0.000717055
606.853,0.000694705
606.953,0.000672996
607.053,0.000651909
607.153,0.00063143
607.253,0.000611543
607.353,0.000592231
607.453,0.000573481
607.553,0.000555277
607.653,0.000537606
607.753,0.000520453
607.853,0.000503805
607.953,0.000487648
608.053,0.000471969
608.153,0.000456755
608.253,0.000441995
608.353,0.000427675
608.453,0.000413784
608.553,0.000400311
608.653,0.000387243
608.753,0.00037457
608.853,0.000362281
608.953,0.000350366
609.053,0.000338814
609.153,0.000327615
609.253,0.00031676
609.353,0.000306238
609.453,0.00029604
609.553,0.000286158
609.653,0.000276583
609.753,0.000267305
609.853,0.000258316
609.953,0.000249609
610.053,0.000241175
610.153,0.000233006
610.253,0.000225094
610.353,0.000217433
610.453,0.000210015
610.553,0.000202833
610.653,0.000195879
610.753,0.000189149
610.853,0.000182633
610.953,0.000176328
611.053,0.000170226
611.153,0.00016432
611.253,0.000158607
611.353,0.000153079
611.453,0.000147731
611.553,0.000142558
611.653,0.000137555
611.753,0.000132715
611.853,0.000128036
611.953,0.00012351
612.053,0.000119135
612.153,0.000114905
612.253,0.000110816
612.353,0.000106863
612.453,0.000103042
612.553,9.935e-05
612.653,9.57819e-05
612.753,9.2334e-05
612.853,8.90028e-05
612.953,8.57845e-05
613.053,8.26755e-05
613.153,7.96725e-05
613.253,7.6772e-05
613.353,7.39709e-05
613.453,7.12659e-05
613.553,6.86541e-05
613.653,6.61323e-05
613.753,6.36978e-05
613.853,6.13478e-05
613.953,5.90794e-05
614.053,5.689e-05
614.153,5.47772e-05
614.253,5.27384e-05
614.353,5.07711e-05
614.453,4.88731e-05
614.553,4.70421e-05
614.653,4.52759e-05
614.753,4.35722e-05
614.853,4.19291e-05
614.953,4.03446e-05
615.053,3.88166e-05
615.153,3.73434e-05
615.253,3.5923e-05
615.353,3.45538e-05
615.453,3.32339e-05
615.553,3.19617e-05
615.653,3.07356e-05
615.753,2.9554e-05
615.853,2.84155e-05
615.953,2.73185e-05
616.053,2.62616e-05
616.153,2.52435e-05
616.253,2.42628e-05
616.353,2.33183e-05
616.453,2.24086e-05
616.553,2.15325e-05
616.653,2.0689e-05
616.753,1.98768e-05
616.853,1.90949e-05
616.953,1.83422e-05
617.053,1.76177e-05
617.153,1.69203e-05
617.253,1.62492e-05