File: mohanta_2013/25nm/raman/curve_2_fit.dat
507.442,6.19835e-44
507.542,8.67092e-44
507.642,1.21228e-43
507.742,1.69393e-43
507.842,2.36556e-43
507.942,3.30159e-43
508.042,4.60536e-43
508.142,6.42027e-43
508.242,8.94527e-43
508.342,1.24561e-42
508.442,1.7335e-42
508.542,2.41109e-42
508.642,3.35162e-42
508.742,4.65635e-42
508.842,6.46526e-42
508.942,8.97174e-42
509.042,1.24428e-41
509.142,1.72468e-41
509.242,2.38918e-41
509.342,3.30781e-41
509.442,4.57701e-41
509.542,6.32955e-41
509.642,8.74811e-41
509.742,1.20839e-40
509.842,1.6682e-40
509.942,2.30165e-40
510.042,3.17381e-40
510.142,4.37394e-40
510.242,6.02441e-40
510.342,8.29291e-40
510.442,1.1409e-39
510.542,1.56871e-39
510.642,2.15568e-39
510.742,2.96058e-39
510.842,4.06367e-39
510.942,5.57457e-39
511.042,7.64283e-39
511.142,1.04724e-38
511.242,1.43414e-38
511.342,1.96283e-38
511.442,2.68489e-38
511.542,3.67045e-38
511.642,5.01491e-38
511.742,6.84788e-38
511.842,9.34545e-38
511.942,1.27466e-37
512.042,1.73755e-37
512.142,2.36718e-37
512.242,3.22311e-37
512.342,4.38601e-37
512.442,5.96504e-37
512.542,8.10788e-37
512.642,1.10142e-36
512.742,1.49536e-36
512.842,2.02904e-36
512.942,2.7516e-36
513.042,3.72932e-36
513.142,5.05155e-36
513.242,6.83864e-36
513.342,9.25262e-36
513.442,1.25115e-35
513.542,1.69085e-35
513.642,2.28376e-35
513.742,3.0828e-35
513.842,4.15902e-35
513.942,5.60773e-35
514.042,7.55671e-35
514.142,1.01772e-34
514.242,1.36985e-34
514.342,1.84277e-34
514.442,2.47752e-34
514.542,3.32899e-34
514.642,4.47053e-34
514.742,6.00005e-34
514.842,8.04825e-34
514.942,1.07894e-33
515.042,1.44559e-33
515.142,1.93572e-33
515.242,2.59053e-33
515.342,3.46486e-33
515.442,4.63162e-33
515.542,6.18771e-33
515.642,8.26184e-33
515.742,1.10249e-32
515.842,1.47035e-32
515.942,1.95983e-32
516.042,2.61076e-32
516.142,3.47588e-32
516.242,4.62501e-32
516.342,6.1505e-32
516.442,8.17445e-32
516.542,1.08582e-31
516.642,1.44147e-31
516.742,1.91251e-31
516.842,2.53601e-31
516.942,3.36086e-31
517.042,4.45142e-31
517.142,5.89247e-31
517.242,7.79554e-31
517.342,1.03073e-30
517.442,1.36205e-30
517.542,1.79884e-30
517.642,2.37434e-30
517.742,3.13214e-30
517.842,4.12944e-30
517.942,5.44115e-30
518.042,7.16539e-30
518.142,9.43061e-30
518.242,1.24048e-29
518.342,1.63076e-29
518.442,2.14259e-29
518.542,2.81345e-29
518.642,3.69224e-29
518.742,4.84272e-29
518.842,6.34805e-29
518.942,8.3165e-29
519.042,1.08891e-28
519.142,1.42492e-28
519.242,1.86356e-28
519.342,2.43581e-28
519.442,3.18196e-28
519.542,4.15427e-28
519.642,5.42059e-28
519.742,7.06883e-28
519.842,9.21295e-28
519.942,1.20005e-27
520.042,1.56225e-27
520.142,2.03261e-27
520.242,2.64305e-27
520.342,3.43484e-27
520.442,4.46127e-27
520.542,5.7911e-27
520.642,7.51299e-27
520.742,9.74126e-27
520.842,1.26231e-26
520.942,1.63482e-26
521.042,2.11603e-26
521.142,2.73732e-26
521.242,3.53898e-26
521.342,4.57278e-26
521.442,5.90518e-26
521.542,7.62143e-26
521.642,9.83081e-26
521.742,1.26734e-25
521.842,1.63285e-25
521.942,2.10256e-25
522.042,2.70584e-25
522.142,3.48022e-25
522.242,4.47363e-25
522.342,5.7473e-25
522.442,7.37934e-25
522.542,9.46938e-25
522.642,1.21444e-24
522.742,1.55661e-24
522.842,1.99404e-24
522.942,2.55293e-24
523.042,3.26658e-24
523.142,4.17732e-24
523.242,5.3389e-24
523.342,6.81956e-24
523.442,8.70586e-24
523.542,1.11075e-23
523.642,1.41635e-23
523.742,1.805e-23
523.842,2.29896e-23
523.942,2.92642e-23
524.042,3.723e-23
524.142,4.73367e-23
524.242,6.01525e-23
524.342,7.6394e-23
524.442,9.6965e-23
524.542,1.23004e-22
524.642,1.55947e-22
524.742,1.97598e-22
524.842,2.5023e-22
524.942,3.16698e-22
525.042,4.00592e-22
525.142,5.06417e-22
525.242,6.39831e-22
525.342,8.07926e-22
525.442,1.0196e-21
525.542,1.28598e-21
525.642,1.62103e-21
525.742,2.04221e-21
525.842,2.57132e-21
525.942,3.23567e-21
526.042,4.06931e-21
526.142,5.1148e-21
526.242,6.42519e-21
526.342,8.06666e-21
526.442,1.01217e-20
526.542,1.26929e-20
526.642,1.59081e-20
526.742,1.99262e-20
526.842,2.4945e-20
526.942,3.12099e-20
527.042,3.90256e-20
527.142,4.87706e-20
527.242,6.0914e-20
527.342,7.60371e-20
527.442,9.48603e-20
527.542,1.18275e-19
527.642,1.47385e-19
527.742,1.83553e-19
527.842,2.28465e-19
527.942,2.84203e-19
528.042,3.53337e-19
528.142,4.39034e-19
528.242,5.45202e-19
528.342,6.76655e-19
528.442,8.39319e-19
528.542,1.04049e-18
528.642,1.28913e-18
528.742,1.59627e-18
528.842,1.97545e-18
528.942,2.4433e-18
529.042,3.02021e-18
529.142,3.73119e-18
529.242,4.60689e-18
529.342,5.68484e-18
529.442,7.01099e-18
529.542,8.64151e-18
529.642,1.06451e-17
529.742,1.31057e-17
529.842,1.61259e-17
529.942,1.98305e-17
530.042,2.43722e-17
530.142,2.99369e-17
530.242,3.67509e-17
530.342,4.50899e-17
530.442,5.52893e-17
530.542,6.77568e-17
530.642,8.29879e-17
530.742,1.01584e-16
530.842,1.24276e-16
530.942,1.5195e-16
531.042,1.85679e-16
531.142,2.26765e-16
531.242,2.76782e-16
531.342,3.37637e-16
531.442,4.11635e-16
531.542,5.01563e-16
531.642,6.10785e-16
531.742,7.43363e-16
531.842,9.04199e-16
531.942,1.0992e-15
532.042,1.33549e-15
532.142,1.62164e-15
532.242,1.96796e-15
532.342,2.38688e-15
532.442,2.8933e-15
532.542,3.50516e-15
532.642,4.24396e-15
532.742,5.13553e-15
532.842,6.21083e-15
532.942,7.50695e-15
533.042,9.06834e-15
533.142,1.09482e-14
533.242,1.32101e-14
533.342,1.59302e-14
533.442,1.91993e-14
533.542,2.3126e-14
533.642,2.78397e-14
533.742,3.3495e-14
533.842,4.02758e-14
533.942,4.84016e-14
534.042,5.81332e-14
534.142,6.97814e-14
534.242,8.37154e-14
534.342,1.00374e-13
534.442,1.20278e-13
534.542,1.44046e-13
534.642,1.72412e-13
534.742,2.06245e-13
534.842,2.46575e-13
534.942,2.94622e-13
535.042,3.51829e-13
535.142,4.19902e-13
535.242,5.00857e-13
535.342,5.97077e-13
535.442,7.11372e-13
535.542,8.47058e-13
535.642,1.00805e-12
535.742,1.19894e-12
535.842,1.42516e-12
535.942,1.69309e-12
536.042,2.01024e-12
536.142,2.38542e-12
536.242,2.82899e-12
536.342,3.35312e-12
536.442,3.97207e-12
536.542,4.70256e-12
536.642,5.56419e-12
536.742,6.57991e-12
536.842,7.77657e-12
536.942,9.18556e-12
537.042,1.08436e-11
537.142,1.27936e-11
537.242,1.50855e-11
537.342,1.77778e-11
537.442,2.09386e-11
537.542,2.46471e-11
537.642,2.89957e-11
537.742,3.4092e-11
537.842,4.0061e-11
537.942,4.70479e-11
538.042,5.52217e-11
538.142,6.47782e-11
538.242,7.59448e-11
538.342,8.89851e-11
538.442,1.04205e-10
538.542,1.21957e-10
538.642,1.42651e-10
538.742,1.66761e-10
538.842,1.94834e-10
538.942,2.27502e-10
539.042,2.65494e-10
539.142,3.09653e-10
539.242,3.60949e-10
539.342,4.205e-10
539.442,4.89594e-10
539.542,5.69714e-10
539.642,6.62563e-10
539.742,7.70102e-10
539.842,8.94579e-10
539.942,1.03858e-09
540.042,1.20507e-09
540.142,1.39744e-09
540.242,1.61958e-09
540.342,1.87596e-09
540.442,2.17168e-09
540.542,2.51256e-09
540.642,2.90528e-09
540.742,3.35745e-09
540.842,3.87777e-09
540.942,4.47614e-09
541.042,5.16387e-09
541.142,5.95385e-09
541.242,6.86072e-09
541.342,7.90118e-09
541.442,9.0942e-09
541.542,1.04613e-08
541.642,1.20271e-08
541.742,1.38192e-08
541.842,1.58692e-08
541.942,1.82128e-08
542.042,2.08906e-08
542.142,2.39482e-08
542.242,2.74376e-08
542.342,3.14174e-08
542.442,3.59537e-08
542.542,4.11213e-08
542.642,4.70045e-08
542.742,5.36987e-08
542.842,6.13108e-08
542.942,6.99618e-08
543.042,7.97875e-08
543.142,9.09408e-08
543.242,1.03594e-07
543.342,1.17939e-07
543.442,1.34193e-07
543.542,1.526e-07
543.642,1.73432e-07
543.742,1.96995e-07
543.842,2.2363e-07
543.942,2.5372e-07
544.042,2.87693e-07
544.142,3.26027e-07
544.242,3.69257e-07
544.342,4.17979e-07
544.442,4.72857e-07
544.542,5.34632e-07
544.642,6.0413e-07
544.742,6.82269e-07
544.842,7.70072e-07
544.942,8.68675e-07
545.042,9.79339e-07
545.142,1.10347e-06
545.242,1.24261e-06
545.342,1.3985e-06
545.442,1.57303e-06
545.542,1.76833e-06
545.642,1.98674e-06
545.742,2.23083e-06
545.842,2.50347e-06
545.942,2.80782e-06
546.042,3.14736e-06
546.142,3.52593e-06
546.242,3.94776e-06
546.342,4.41751e-06
546.442,4.94032e-06
546.542,5.52182e-06
546.642,6.16821e-06
546.742,6.88632e-06
546.842,7.6836e-06
546.942,8.56825e-06
547.042,9.54927e-06
547.142,1.06365e-05
547.242,1.18407e-05
547.342,1.31736e-05
547.442,1.46481e-05
547.542,1.62783e-05
547.642,1.80796e-05
547.742,2.00686e-05
547.842,2.22636e-05
547.942,2.46845e-05
548.042,2.73529e-05
548.142,3.02923e-05
548.242,3.35282e-05
548.342,3.70886e-05
548.442,4.10033e-05
548.542,4.53052e-05
548.642,5.00297e-05
548.742,5.5215e-05
548.842,6.09027e-05
548.942,6.71377e-05
549.042,7.39683e-05
549.142,8.14471e-05
549.242,8.96305e-05
549.342,9.85793e-05
549.442,0.000108359
549.542,0.000119041
549.642,0.0001307
549.742,0.000143419
549.842,0.000157285
549.942,0.000172392
550.042,0.000188842
550.142,0.000206742
550.242,0.000226209
550.342,0.000247367
550.442,0.000270347
550.542,0.000295293
550.642,0.000322355
550.742,0.000351695
550.842,0.000383484
550.942,0.000417906
551.042,0.000455156
551.142,0.000495442
551.242,0.000538982
551.342,0.000586012
551.442,0.000636778
551.542,0.000691545
551.642,0.00075059
551.742,0.000814207
551.842,0.000882709
551.942,0.000956423
552.042,0.0010357
552.142,0.0011209
552.242,0.00121241
552.342,0.00131063
552.442,0.001416
552.542,0.00152896
552.642,0.00164999
552.742,0.00177956
552.842,0.00191821
552.942,0.00206648
553.042,0.00222492
553.142,0.00239413
553.242,0.00257473
553.342,0.00276736
553.442,0.00297269
553.542,0.00319142
553.642,0.00342427
553.742,0.003672
553.842,0.00393538
553.942,0.00421523
554.042,0.00451238
554.142,0.0048277
554.242,0.00516209
554.342,0.00551646
554.442,0.00589176
554.542,0.00628898
554.642,0.00670912
554.742,0.0071532
554.842,0.0076223
554.942,0.00811748
555.042,0.00863986
555.142,0.00919057
555.242,0.00977076
555.342,0.0103816
555.442,0.0110243
555.542,0.0117
555.642,0.01241
555.742,0.0131555
555.842,0.0139378
555.942,0.0147581
556.042,0.0156177
556.142,0.0165179
556.242,0.0174599
556.342,0.018445
556.442,0.0194744
556.542,0.0205495
556.642,0.0216715
556.742,0.0228416
556.842,0.024061
556.942,0.0253309
557.042,0.0266525
557.142,0.028027
557.242,0.0294553
557.342,0.0309387
557.442,0.032478
557.542,0.0340743
557.642,0.0357286
557.742,0.0374415
557.842,0.0392141
557.942,0.0410469
558.042,0.0429407
558.142,0.044896
558.242,0.0469133
558.342,0.0489931
558.442,0.0511356
558.542,0.0533412
558.642,0.0556098
558.742,0.0579416
558.842,0.0603365
558.942,0.0627942
559.042,0.0653144
559.142,0.0678966
559.242,0.0705404
559.342,0.073245
559.442,0.0760094
559.542,0.0788329
559.642,0.0817142
559.742,0.0846521
559.842,0.0876451
559.942,0.0906918
560.042,0.0937904
560.142,0.0969391
560.242,0.100136
560.342,0.103379
560.442,0.106665
560.542,0.109992
560.642,0.113358
560.742,0.11676
560.842,0.120195
560.942,0.123659
561.042,0.12715
561.142,0.130665
561.242,0.1342
561.342,0.13775
561.442,0.141314
561.542,0.144886
561.642,0.148463
561.742,0.152041
561.842,0.155615
561.942,0.159182
562.042,0.162737
562.142,0.166276
562.242,0.169794
562.342,0.173287
562.442,0.176749
562.542,0.180177
562.642,0.183567
562.742,0.186912
562.842,0.190208
562.942,0.193452
563.042,0.196637
563.142,0.199761
563.242,0.202816
563.342,0.205801
563.442,0.208709
563.542,0.211536
563.642,0.214278
563.742,0.216931
563.842,0.219491
563.942,0.221953
564.042,0.224313
564.142,0.226568
564.242,0.228715
564.342,0.230748
564.442,0.232666
564.542,0.234465
564.642,0.236142
564.742,0.237694
564.842,0.239118
564.942,0.240413
565.042,0.241576
565.142,0.242604
565.242,0.243497
565.342,0.244253
565.442,0.24487
565.542,0.245347
565.642,0.245684
565.742,0.24588
565.842,0.245935
565.942,0.245909
566.042,0.245842
566.142,0.245733
566.242,0.245582
566.342,0.24539
566.442,0.245156
566.542,0.244882
566.642,0.244566
566.742,0.244208
566.842,0.243811
566.942,0.243372
567.042,0.242893
567.142,0.242374
567.242,0.241815
567.342,0.241216
567.442,0.240578
567.542,0.239902
567.642,0.239186
567.742,0.238432
567.842,0.23764
567.942,0.236811
568.042,0.235944
568.142,0.235041
568.242,0.234102
568.342,0.233127
568.442,0.232116
568.542,0.231071
568.642,0.229991
568.742,0.228878
568.842,0.227731
568.942,0.226552
569.042,0.225341
569.142,0.224098
569.242,0.222824
569.342,0.22152
569.442,0.220186
569.542,0.218823
569.642,0.217431
569.742,0.216012
569.842,0.214566
569.942,0.213093
570.042,0.211594
570.142,0.210071
570.242,0.208523
570.342,0.206951
570.442,0.205356
570.542,0.203739
570.642,0.202101
570.742,0.200441
570.842,0.198762
570.942,0.197063
571.042,0.195346
571.142,0.19361
571.242,0.191858
571.342,0.190089
571.442,0.188305
571.542,0.186506
571.642,0.184692
571.742,0.182865
571.842,0.181026
571.942,0.179175
572.042,0.177312
572.142,0.175439
572.242,0.173557
572.342,0.171665
572.442,0.169766
572.542,0.167859
572.642,0.165945
572.742,0.164025
572.842,0.1621
572.942,0.160171
573.042,0.158237
573.142,0.156301
573.242,0.154361
573.342,0.15242
573.442,0.150478
573.542,0.148536
573.642,0.146594
573.742,0.144652
573.842,0.142712
573.942,0.140775
574.042,0.13884
574.142,0.136908
574.242,0.13498
574.342,0.133057
574.442,0.131139
574.542,0.129227
574.642,0.127321
574.742,0.125422
574.842,0.123531
574.942,0.121647
575.042,0.119772
575.142,0.117905
575.242,0.116048
575.342,0.114201
575.442,0.112364
575.542,0.110538
575.642,0.108723
575.742,0.10692
575.842,0.105129
575.942,0.103351
576.042,0.101585
576.142,0.0998324
576.242,0.0980935
576.342,0.0963686
576.442,0.0946579
576.542,0.0929618
576.642,0.0912807
576.742,0.0896147
576.842,0.0879643
576.942,0.0863296
577.042,0.0847109
577.142,0.0831085
577.242,0.0815225
577.342,0.0799533
577.442,0.0784009
577.542,0.0768657
577.642,0.0753477
577.742,0.0738473
577.842,0.0723644
577.942,0.0708992
578.042,0.069452
578.142,0.0680227
578.242,0.0666116
578.342,0.0652187
578.442,0.0638441
578.542,0.0624878
578.642,0.06115
578.742,0.0598307
578.842,0.05853
578.942,0.0572478
579.042,0.0559842
579.142,0.0547392
579.242,0.0535128
579.342,0.052305
579.442,0.0511158
579.542,0.0499452
579.642,0.0487931
579.742,0.0476595
579.842,0.0465443
579.942,0.0454476
580.042,0.0443691
580.142,0.0433089
580.242,0.0422669
580.342,0.0412429
580.442,0.0402369
580.542,0.0392488
580.642,0.0382785
580.742,0.0373258
580.842,0.0363907
580.942,0.035473
581.042,0.0345726
581.142,0.0336893
581.242,0.032823
581.342,0.0319735
581.442,0.0311408
581.542,0.0303246
581.642,0.0295248
581.742,0.0287412
581.842,0.0279737
581.942,0.027222
582.042,0.0264861
582.142,0.0257656
582.242,0.0250605
582.342,0.0243706
582.442,0.0236957
582.542,0.0230355
582.642,0.02239
582.742,0.0217588
582.842,0.0211419
582.942,0.0205389
583.042,0.0199498
583.142,0.0193743
583.242,0.0188122
583.342,0.0182633
583.442,0.0177274
583.542,0.0172043
583.642,0.0166938
583.742,0.0161957
583.842,0.0157098
583.942,0.015236
584.042,0.0147739
584.142,0.0143233
584.242,0.0138842
584.342,0.0134563
584.442,0.0130393
584.542,0.0126331
584.642,0.0122375
584.742,0.0118523
584.842,0.0114772
584.942,0.0111121
585.042,0.0107568
585.142,0.0104112
585.242,0.0100749
585.342,0.00974779
585.442,0.00942973
585.542,0.0091205
585.642,0.00881992
585.742,0.00852779
585.842,0.00824395
585.942,0.0079682
586.042,0.00770036
586.142,0.00744027
586.242,0.00718774
586.342,0.00694261
586.442,0.0067047
586.542,0.00647385
586.642,0.00624988
586.742,0.00603264
586.842,0.00582196
586.942,0.00561769
587.042,0.00541967
587.142,0.00522773
587.242,0.00504175
587.342,0.00486155
587.442,0.004687
587.542,0.00451795
587.642,0.00435426
587.742,0.00419578
587.842,0.00404239
587.942,0.00389395
588.042,0.00375032
588.142,0.00361138
588.242,0.003477
588.342,0.00334704
588.442,0.0032214
588.542,0.00309995
588.642,0.00298258
588.742,0.00286916
588.842,0.00275958
588.942,0.00265374
589.042,0.00255153
589.142,0.00245283
589.242,0.00235756
589.342,0.0022656
589.442,0.00217686
589.542,0.00209124
589.642,0.00200865
589.742,0.00192899
589.842,0.00185218
589.942,0.00177812
590.042,0.00170674
590.142,0.00163794
590.242,0.00157165
590.342,0.00150779
590.442,0.00144628
590.542,0.00138704
590.642,0.00133
590.742,0.00127509
590.842,0.00122224
590.942,0.00117138
591.042,0.00112245
591.142,0.00107538
591.242,0.00103011
591.342,0.000986581
591.442,0.000944728
591.542,0.000904497
591.642,0.000865833
591.742,0.000828681
591.842,0.000792988
591.942,0.000758705
592.042,0.00072578
592.142,0.000694166
592.242,0.000663817
592.342,0.000634687
592.442,0.000606733
592.542,0.000579911
592.642,0.000554181
592.742,0.000529503
592.842,0.000505838
592.942,0.000483149
593.042,0.000461399
593.142,0.000440554
593.242,0.000420579
593.342,0.000401441
593.442,0.00038311
593.542,0.000365553
593.642,0.000348742
593.742,0.000332648
593.842,0.000317243
593.942,0.000302499
594.042,0.000288392
594.142,0.000274897
594.242,0.000261988
594.342,0.000249643
594.442,0.00023784
594.542,0.000226556
594.642,0.000215771
594.742,0.000205464
594.842,0.000195617
594.942,0.00018621
595.042,0.000177225
595.142,0.000168645
595.242,0.000160454
595.342,0.000152634
595.442,0.000145171
595.542,0.000138049
595.642,0.000131255
595.742,0.000124774