File: mohanta_2013/25nm/raman/curve_1_fit.dat
507.442,0.00566811
507.542,0.00576386
507.642,0.00586102
507.742,0.00595961
507.842,0.00605965
507.942,0.00616115
508.042,0.00626414
508.142,0.00636863
508.242,0.00647463
508.342,0.00658218
508.442,0.00669127
508.542,0.00680194
508.642,0.0069142
508.742,0.00702806
508.842,0.00714356
508.942,0.0072607
509.042,0.0073795
509.142,0.00749999
509.242,0.00762218
509.342,0.00774609
509.442,0.00787174
509.542,0.00799916
509.642,0.00812835
509.742,0.00825935
509.842,0.00839216
509.942,0.00852681
510.042,0.00866332
510.142,0.00880172
510.242,0.00894201
510.342,0.00908422
510.442,0.00922838
510.542,0.00937449
510.642,0.00952259
510.742,0.0096727
510.842,0.00982482
510.942,0.009979
511.042,0.0101352
511.142,0.0102936
511.242,0.010454
511.342,0.0106166
511.442,0.0107813
511.542,0.0109482
511.642,0.0111173
511.742,0.0112886
511.842,0.0114622
511.942,0.011638
512.042,0.0118161
512.142,0.0119966
512.242,0.0121793
512.342,0.0123644
512.442,0.0125519
512.542,0.0127418
512.642,0.0129341
512.742,0.0131289
512.842,0.0133261
512.942,0.0135258
513.042,0.0137281
513.142,0.0139328
513.242,0.0141402
513.342,0.0143501
513.442,0.0145626
513.542,0.0147778
513.642,0.0149956
513.742,0.0152162
513.842,0.0154394
513.942,0.0156653
514.042,0.015894
514.142,0.0161255
514.242,0.0163598
514.342,0.0165969
514.442,0.0168369
514.542,0.0170798
514.642,0.0173255
514.742,0.0175742
514.842,0.0178258
514.942,0.0180804
515.042,0.018338
515.142,0.0185986
515.242,0.0188623
515.342,0.019129
515.442,0.0193989
515.542,0.0196718
515.642,0.019948
515.742,0.0202272
515.842,0.0205097
515.942,0.0207954
516.042,0.0210844
516.142,0.0213766
516.242,0.0216722
516.342,0.021971
516.442,0.0222732
516.542,0.0225788
516.642,0.0228877
516.742,0.0232001
516.842,0.023516
516.942,0.0238353
517.042,0.0241581
517.142,0.0244844
517.242,0.0248143
517.342,0.0251477
517.442,0.0254848
517.542,0.0258254
517.642,0.0261697
517.742,0.0265177
517.842,0.0268694
517.942,0.0272248
518.042,0.0275839
518.142,0.0279468
518.242,0.0283135
518.342,0.028684
518.442,0.0290584
518.542,0.0294366
518.642,0.0298187
518.742,0.0302047
518.842,0.0305946
518.942,0.0309885
519.042,0.0313864
519.142,0.0317883
519.242,0.0321942
519.342,0.0326041
519.442,0.0330182
519.542,0.0334363
519.642,0.0338586
519.742,0.034285
519.842,0.0347155
519.942,0.0351503
520.042,0.0355892
520.142,0.0360324
520.242,0.0364799
520.342,0.0369316
520.442,0.0373876
520.542,0.0378479
520.642,0.0383126
520.742,0.0387816
520.842,0.039255
520.942,0.0397328
521.042,0.040215
521.142,0.0407016
521.242,0.0411928
521.342,0.0416883
521.442,0.0421884
521.542,0.042693
521.642,0.0432022
521.742,0.0437159
521.842,0.0442341
521.942,0.044757
522.042,0.0452845
522.142,0.0458165
522.242,0.0463533
522.342,0.0468947
522.442,0.0474407
522.542,0.0479915
522.642,0.048547
522.742,0.0491072
522.842,0.0496721
522.942,0.0502418
523.042,0.0508162
523.142,0.0513955
523.242,0.0519795
523.342,0.0525683
523.442,0.053162
523.542,0.0537605
523.642,0.0543639
523.742,0.0549721
523.842,0.0555852
523.942,0.0562032
524.042,0.0568261
524.142,0.0574539
524.242,0.0580866
524.342,0.0587242
524.442,0.0593668
524.542,0.0600143
524.642,0.0606668
524.742,0.0613242
524.842,0.0619866
524.942,0.062654
525.042,0.0633264
525.142,0.0640038
525.242,0.0646862
525.342,0.0653735
525.442,0.0660659
525.542,0.0667633
525.642,0.0674657
525.742,0.0681732
525.842,0.0688857
525.942,0.0696032
526.042,0.0703257
526.142,0.0710533
526.242,0.0717859
526.342,0.0725235
526.442,0.0732662
526.542,0.0740139
526.642,0.0747666
526.742,0.0755244
526.842,0.0762872
526.942,0.077055
527.042,0.0778279
527.142,0.0786058
527.242,0.0793887
527.342,0.0801766
527.442,0.0809695
527.542,0.0817674
527.642,0.0825703
527.742,0.0833782
527.842,0.0841911
527.942,0.085009
528.042,0.0858318
528.142,0.0866596
528.242,0.0874923
528.342,0.08833
528.442,0.0891726
528.542,0.0900201
528.642,0.0908725
528.742,0.0917298
528.842,0.0925919
528.942,0.0934589
529.042,0.0943308
529.142,0.0952075
529.242,0.096089
529.342,0.0969753
529.442,0.0978663
529.542,0.0987622
529.642,0.0996627
529.742,0.100568
529.842,0.101478
529.942,0.102393
530.042,0.103312
530.142,0.104236
530.242,0.105164
530.342,0.106098
530.442,0.107035
530.542,0.107978
530.642,0.108924
530.742,0.109876
530.842,0.110831
530.942,0.111791
531.042,0.112756
531.142,0.113725
531.242,0.114698
531.342,0.115676
531.442,0.116658
531.542,0.117644
531.642,0.118634
531.742,0.119629
531.842,0.120627
531.942,0.12163
532.042,0.122637
532.142,0.123648
532.242,0.124663
532.342,0.125681
532.442,0.126704
532.542,0.127731
532.642,0.128761
532.742,0.129796
532.842,0.130834
532.942,0.131876
533.042,0.132921
533.142,0.13397
533.242,0.135023
533.342,0.136079
533.442,0.137139
533.542,0.138202
533.642,0.139269
533.742,0.140339
533.842,0.141412
533.942,0.142489
534.042,0.143568
534.142,0.144651
534.242,0.145737
534.342,0.146826
534.442,0.147919
534.542,0.149014
534.642,0.150112
534.742,0.151212
534.842,0.152316
534.942,0.153422
535.042,0.154531
535.142,0.155643
535.242,0.156757
535.342,0.157873
535.442,0.158992
535.542,0.160114
535.642,0.161238
535.742,0.162364
535.842,0.163492
535.942,0.164622
536.042,0.165754
536.142,0.166889
536.242,0.168025
536.342,0.169163
536.442,0.170303
536.542,0.171445
536.642,0.172588
536.742,0.173733
536.842,0.174879
536.942,0.176027
537.042,0.177176
537.142,0.178327
537.242,0.179479
537.342,0.180632
537.442,0.181786
537.542,0.182941
537.642,0.184097
537.742,0.185254
537.842,0.186412
537.942,0.18757
538.042,0.188729
538.142,0.189889
538.242,0.191049
538.342,0.192209
538.442,0.19337
538.542,0.194531
538.642,0.195693
538.742,0.196854
538.842,0.198016
538.942,0.199177
539.042,0.200338
539.142,0.201499
539.242,0.20266
539.342,0.20382
539.442,0.20498
539.542,0.206139
539.642,0.207298
539.742,0.208456
539.842,0.209613
539.942,0.210769
540.042,0.211924
540.142,0.213078
540.242,0.214231
540.342,0.215383
540.442,0.216534
540.542,0.217683
540.642,0.21883
540.742,0.219976
540.842,0.22112
540.942,0.222263
541.042,0.223403
541.142,0.224542
541.242,0.225679
541.342,0.226813
541.442,0.227945
541.542,0.229075
541.642,0.230203
541.742,0.231328
541.842,0.232451
541.942,0.233571
542.042,0.234688
542.142,0.235802
542.242,0.236913
542.342,0.238022
542.442,0.239127
542.542,0.240229
542.642,0.241328
542.742,0.242423
542.842,0.243515
542.942,0.244603
543.042,0.245688
543.142,0.246768
543.242,0.247845
543.342,0.248918
543.442,0.249987
543.542,0.251052
543.642,0.252113
543.742,0.253169
543.842,0.254221
543.942,0.255269
544.042,0.256311
544.142,0.25735
544.242,0.258383
544.342,0.259412
544.442,0.260435
544.542,0.261454
544.642,0.262467
544.742,0.263475
544.842,0.264478
544.942,0.265476
545.042,0.266468
545.142,0.267454
545.242,0.268435
545.342,0.26941
545.442,0.270379
545.542,0.271342
545.642,0.2723
545.742,0.273251
545.842,0.274196
545.942,0.275134
546.042,0.276066
546.142,0.276992
546.242,0.277911
546.342,0.278824
546.442,0.27973
546.542,0.280629
546.642,0.281521
546.742,0.282406
546.842,0.283285
546.942,0.284156
547.042,0.285019
547.142,0.285876
547.242,0.286725
547.342,0.287567
547.442,0.288401
547.542,0.289227
547.642,0.290046
547.742,0.290857
547.842,0.29166
547.942,0.292455
548.042,0.293243
548.142,0.294022
548.242,0.294793
548.342,0.295555
548.442,0.29631
548.542,0.297056
548.642,0.297793
548.742,0.298522
548.842,0.299243
548.942,0.299954
549.042,0.300657
549.142,0.301352
549.242,0.302037
549.342,0.302713
549.442,0.30338
549.542,0.304039
549.642,0.304688
549.742,0.305327
549.842,0.305958
549.942,0.306579
550.042,0.307191
550.142,0.307793
550.242,0.308386
550.342,0.308969
550.442,0.309543
550.542,0.310107
550.642,0.310661
550.742,0.311205
550.842,0.31174
550.942,0.312264
551.042,0.312779
551.142,0.313283
551.242,0.313778
551.342,0.314262
551.442,0.314736
551.542,0.3152
551.642,0.315653
551.742,0.316097
551.842,0.31653
551.942,0.316952
552.042,0.317364
552.142,0.317766
552.242,0.318157
552.342,0.318537
552.442,0.318907
552.542,0.319266
552.642,0.319614
552.742,0.319952
552.842,0.320279
552.942,0.320595
553.042,0.320901
553.142,0.321195
553.242,0.321479
553.342,0.321751
553.442,0.322013
553.542,0.322264
553.642,0.322503
553.742,0.322732
553.842,0.32295
553.942,0.323156
554.042,0.323352
554.142,0.323536
554.242,0.323709
554.342,0.323871
554.442,0.324022
554.542,0.324162
554.642,0.32429
554.742,0.324408
554.842,0.324514
554.942,0.324609
555.042,0.324692
555.142,0.324764
555.242,0.324825
555.342,0.324875
555.442,0.324914
555.542,0.324941
555.642,0.324957
555.742,0.324961
555.842,0.324872
555.942,0.324631
556.042,0.324238
556.142,0.323695
556.242,0.323001
556.342,0.322158
556.442,0.321166
556.542,0.320028
556.642,0.318745
556.742,0.317319
556.842,0.315751
556.942,0.314043
557.042,0.312199
557.142,0.310221
557.242,0.308111
557.342,0.305872
557.442,0.303507
557.542,0.30102
557.642,0.298414
557.742,0.295691
557.842,0.292857
557.942,0.289914
558.042,0.286866
558.142,0.283717
558.242,0.280472
558.342,0.277134
558.442,0.273708
558.542,0.270198
558.642,0.266608
558.742,0.262943
558.842,0.259206
558.942,0.255403
559.042,0.251539
559.142,0.247617
559.242,0.243642
559.342,0.239618
559.442,0.235551
559.542,0.231445
559.642,0.227304
559.742,0.223132
559.842,0.218935
559.942,0.214716
560.042,0.21048
560.142,0.206231
560.242,0.201973
560.342,0.19771
560.442,0.193447
560.542,0.189187
560.642,0.184935
560.742,0.180694
560.842,0.176467
560.942,0.172258
561.042,0.168072
561.142,0.16391
561.242,0.159776
561.342,0.155674
561.442,0.151607
561.542,0.147576
561.642,0.143586
561.742,0.139638
561.842,0.135735
561.942,0.131879
562.042,0.128073
562.142,0.124319
562.242,0.120618
562.342,0.116973
562.442,0.113384
562.542,0.109855
562.642,0.106385
562.742,0.102977
562.842,0.0996316
562.942,0.0963497
563.042,0.0931322
563.142,0.0899801
563.242,0.086894
563.342,0.0838745
563.442,0.0809221
563.542,0.0780371
563.642,0.0752197
563.742,0.0724701
563.842,0.0697883
563.942,0.0671744
564.042,0.0646281
564.142,0.0621493
564.242,0.0597375
564.342,0.0573925
564.442,0.0551138
564.542,0.0529008
564.642,0.0507529
564.742,0.0486694
564.842,0.0466496
564.942,0.0446927
565.042,0.0427979
565.142,0.0409642
565.242,0.0391908
565.342,0.0374766
565.442,0.0358206
565.542,0.0342217
565.642,0.032679
565.742,0.0311912
565.842,0.0297572
565.942,0.0283758
566.042,0.0270459
566.142,0.0257663
566.242,0.0245358
566.342,0.023353
566.442,0.0222169
566.542,0.0211262
566.642,0.0200796
566.742,0.019076
566.842,0.018114
566.942,0.0171925
567.042,0.0163103
567.142,0.015466
567.242,0.0146587
567.342,0.0138869
567.442,0.0131497
567.542,0.0124457
567.642,0.0117739
567.742,0.0111332
567.842,0.0105225
567.942,0.00994053
568.042,0.00938639
568.142,0.00885901
568.242,0.00835734
568.342,0.00788039
568.442,0.00742718
568.542,0.00699677
568.642,0.00658821
568.742,0.00620061
568.842,0.00583308
568.942,0.00548477
569.042,0.00515485
569.142,0.0048425
569.242,0.00454696
569.342,0.00426745
569.442,0.00400325
569.542,0.00375365
569.642,0.00351797
569.742,0.00329554
569.842,0.00308573
569.942,0.00288793
570.042,0.00270154
570.142,0.002526
570.242,0.00236077
570.342,0.0022053
570.442,0.00205912
570.542,0.00192172
570.642,0.00179265
570.742,0.00167147
570.842,0.00155775
570.942,0.00145109
571.042,0.0013511
571.142,0.00125741
571.242,0.00116967
571.342,0.00108755
571.442,0.00101071
571.542,0.000938868
571.642,0.000871723
571.742,0.000809001
571.842,0.000750441
571.942,0.000695794
572.042,0.000644825
572.142,0.00059731
572.242,0.000553037
572.342,0.000511806
572.442,0.000473428
572.542,0.000437722
572.642,0.00040452
572.742,0.000373662
572.842,0.000344996
572.942,0.00031838
573.042,0.000293681
573.142,0.00027077
573.242,0.00024953
573.342,0.000229849
573.442,0.000211621
573.542,0.000194747
573.642,0.000179135
573.742,0.000164698
573.842,0.000151353
573.942,0.000139024
574.042,0.00012764
574.142,0.000117134
574.242,0.000107441
574.342,9.85052e-05
574.442,9.02699e-05
574.542,8.26845e-05
574.642,7.5701e-05
574.742,6.92749e-05
574.842,6.33646e-05
574.942,5.79315e-05
575.042,5.29395e-05
575.142,4.8355e-05
575.242,4.41468e-05
575.342,4.0286e-05
575.442,3.67457e-05
575.542,3.35008e-05
575.642,3.05282e-05
575.742,2.78063e-05
575.842,2.53152e-05
575.942,2.30366e-05
576.042,2.09532e-05
576.142,1.90493e-05
576.242,1.73104e-05
576.342,1.57228e-05
576.442,1.42741e-05
576.542,1.29529e-05
576.642,1.17484e-05
576.742,1.0651e-05
576.842,9.65153e-06
576.942,8.74178e-06
577.042,7.91408e-06
577.142,7.1614e-06
577.242,6.47727e-06
577.342,5.85576e-06
577.442,5.2914e-06
577.542,4.7792e-06
577.642,4.31456e-06
577.742,3.89327e-06
577.842,3.51147e-06
577.942,3.16564e-06
578.042,2.85253e-06
578.142,2.56918e-06
578.242,2.3129e-06
578.342,2.08121e-06
578.442,1.87185e-06
578.542,1.68277e-06
578.642,1.51207e-06
578.742,1.35806e-06
578.842,1.21916e-06
578.942,1.09396e-06
579.042,9.81155e-07
579.142,8.79571e-07
579.242,7.88135e-07
579.342,7.05875e-07
579.442,6.31904e-07
579.542,5.6542e-07
579.642,5.05695e-07
579.742,4.52067e-07
579.842,4.03937e-07
579.942,3.60762e-07
580.042,3.22051e-07
580.142,2.8736e-07
580.242,2.56285e-07
580.342,2.28464e-07
580.442,2.03568e-07
580.542,1.813e-07
580.642,1.61393e-07
580.742,1.43604e-07
580.842,1.27716e-07
580.942,1.13532e-07
581.042,1.00877e-07
581.142,8.95902e-08
581.242,7.95291e-08
581.342,7.05649e-08
581.442,6.25818e-08
581.542,5.54759e-08
581.642,4.91538e-08
581.742,4.35318e-08
581.842,3.85348e-08
581.942,3.40955e-08
582.042,3.01534e-08
582.142,2.66547e-08
582.242,2.35509e-08
582.342,2.07988e-08
582.442,1.83597e-08
582.542,1.6199e-08
582.642,1.4286e-08
582.742,1.2593e-08
582.842,1.10954e-08
582.942,9.77133e-09
583.042,8.60125e-09
583.142,7.56774e-09
583.242,6.65531e-09
583.342,5.85014e-09
583.442,5.13998e-09
583.542,4.51392e-09
583.642,3.96225e-09
583.742,3.47638e-09
583.842,3.04867e-09
583.942,2.67233e-09
584.042,2.34134e-09
584.142,2.0504e-09
584.242,1.79476e-09
584.342,1.57027e-09
584.442,1.37321e-09
584.542,1.20032e-09
584.642,1.04871e-09
584.742,9.15813e-10
584.842,7.99387e-10
584.942,6.97436e-10
585.042,6.08202e-10
585.142,5.30138e-10
585.242,4.61877e-10
585.342,4.02217e-10
585.442,3.50099e-10
585.542,3.04593e-10
585.642,2.64877e-10
585.742,2.30232e-10
585.842,2.00025e-10
585.942,1.73699e-10
586.042,1.50768e-10
586.142,1.30803e-10
586.242,1.13429e-10
586.342,9.83164e-11
586.442,8.51775e-11
586.542,7.376e-11
586.642,6.3843e-11
586.742,5.52335e-11
586.842,4.77627e-11
586.942,4.1283e-11
587.042,3.56657e-11
587.142,3.07984e-11
587.242,2.65828e-11
587.342,2.29335e-11
587.442,1.9776e-11
587.542,1.70452e-11
587.642,1.46846e-11
587.742,1.2645e-11
587.842,1.08836e-11
587.942,9.36319e-12
588.042,8.0514e-12
588.142,6.92015e-12
588.242,5.94507e-12
588.342,5.10499e-12
588.442,4.38157e-12
588.542,3.7589e-12
588.642,3.22322e-12
588.742,2.76258e-12
588.842,2.36666e-12
588.942,2.02654e-12
589.042,1.73449e-12
589.142,1.48383e-12
589.242,1.2688e-12
589.342,1.08442e-12
589.442,9.26404e-13
589.542,7.91043e-13
589.642,6.75143e-13
589.742,5.75956e-13
589.842,4.9111e-13
589.942,4.18568e-13
590.042,3.56573e-13
590.142,3.03619e-13
590.242,2.58408e-13
590.342,2.19826e-13
590.442,1.86918e-13
590.542,1.58861e-13
590.642,1.34953e-13
590.742,1.14589e-13
590.842,9.72525e-14
590.942,8.25002e-14
591.042,6.9953e-14
591.142,5.92863e-14
591.242,5.02226e-14
591.342,4.25247e-14
591.442,3.59898e-14
591.542,3.04449e-14
591.642,2.57423e-14
591.742,2.17558e-14
591.842,1.83781e-14
591.942,1.55176e-14
592.042,1.30961e-14
592.142,1.10474e-14
592.242,9.31476e-15
592.342,7.85021e-15
592.442,6.61284e-15
592.542,5.56789e-15
592.642,4.68588e-15
592.742,3.94174e-15
592.842,3.31422e-15
592.942,2.7853e-15
593.042,2.33969e-15
593.142,1.96446e-15
593.242,1.64863e-15
593.342,1.38293e-15
593.442,1.15951e-15
593.542,9.71731e-16
593.642,8.13981e-16
593.742,6.8152e-16
593.842,5.70348e-16
593.942,4.77088e-16
594.042,3.9889e-16
594.142,3.33354e-16
594.242,2.78454e-16
594.342,2.32487e-16
594.442,1.94018e-16
594.542,1.61838e-16
594.642,1.34932e-16
594.742,1.12447e-16
594.842,9.36652e-17
594.942,7.79838e-17
595.042,6.48974e-17
595.142,5.39818e-17
595.242,4.48811e-17
595.342,3.72973e-17
595.442,3.09804e-17
595.542,2.57214e-17
595.642,2.13451e-17
595.742,1.77051e-17