File: mohanta_2013/25nm/raman/curve_total_fit.dat
507.442,0.99562
507.542,0.995715
507.642,0.995812
507.742,0.995911
507.842,0.996011
507.942,0.996113
508.042,0.996216
508.142,0.99632
508.242,0.996426
508.342,0.996534
508.442,0.996643
508.542,0.996753
508.642,0.996866
508.742,0.99698
508.842,0.997095
508.942,0.997212
509.042,0.997331
509.142,0.997451
509.242,0.997574
509.342,0.997698
509.442,0.997823
509.542,0.997951
509.642,0.99808
509.742,0.998211
509.842,0.998344
509.942,0.998478
510.042,0.998615
510.142,0.998753
510.242,0.998893
510.342,0.999036
510.442,0.99918
510.542,0.999326
510.642,0.999474
510.742,0.999624
510.842,0.999776
510.942,0.99993
511.042,1.00009
511.142,1.00025
511.242,1.00041
511.342,1.00057
511.442,1.00073
511.542,1.0009
511.642,1.00107
511.742,1.00124
511.842,1.00141
511.942,1.00159
512.042,1.00177
512.142,1.00195
512.242,1.00213
512.342,1.00232
512.442,1.0025
512.542,1.00269
512.642,1.00289
512.742,1.00308
512.842,1.00328
512.942,1.00348
513.042,1.00368
513.142,1.00388
513.242,1.00409
513.342,1.0043
513.442,1.00451
513.542,1.00473
513.642,1.00495
513.742,1.00517
513.842,1.00539
513.942,1.00562
514.042,1.00585
514.142,1.00608
514.242,1.00631
514.342,1.00655
514.442,1.00679
514.542,1.00703
514.642,1.00728
514.742,1.00753
514.842,1.00778
514.942,1.00803
515.042,1.00829
515.142,1.00855
515.242,1.00881
515.342,1.00908
515.442,1.00935
515.542,1.00962
515.642,1.0099
515.742,1.01018
515.842,1.01046
515.942,1.01075
516.042,1.01104
516.142,1.01133
516.242,1.01162
516.342,1.01192
516.442,1.01222
516.542,1.01253
516.642,1.01284
516.742,1.01315
516.842,1.01347
516.942,1.01379
517.042,1.01411
517.142,1.01444
517.242,1.01477
517.342,1.0151
517.442,1.01544
517.542,1.01578
517.642,1.01612
517.742,1.01647
517.842,1.01682
517.942,1.01718
518.042,1.01754
518.142,1.0179
518.242,1.01826
518.342,1.01864
518.442,1.01901
518.542,1.01939
518.642,1.01977
518.742,1.02016
518.842,1.02055
518.942,1.02094
519.042,1.02134
519.142,1.02174
519.242,1.02215
519.342,1.02256
519.442,1.02297
519.542,1.02339
519.642,1.02381
519.742,1.02424
519.842,1.02467
519.942,1.0251
520.042,1.02554
520.142,1.02598
520.242,1.02643
520.342,1.02688
520.442,1.02734
520.542,1.0278
520.642,1.02826
520.742,1.02873
520.842,1.02921
520.942,1.02968
521.042,1.03017
521.142,1.03065
521.242,1.03114
521.342,1.03164
521.442,1.03214
521.542,1.03264
521.642,1.03315
521.742,1.03367
521.842,1.03419
521.942,1.03471
522.042,1.03524
522.142,1.03577
522.242,1.0363
522.342,1.03685
522.442,1.03739
522.542,1.03794
522.642,1.0385
522.742,1.03906
522.842,1.03962
522.942,1.04019
523.042,1.04077
523.142,1.04135
523.242,1.04193
523.342,1.04252
523.442,1.04311
523.542,1.04371
523.642,1.04432
523.742,1.04492
523.842,1.04554
523.942,1.04615
524.042,1.04678
524.142,1.04741
524.242,1.04804
524.342,1.04868
524.442,1.04932
524.542,1.04997
524.642,1.05062
524.742,1.05128
524.842,1.05194
524.942,1.05261
525.042,1.05328
525.142,1.05396
525.242,1.05464
525.342,1.05532
525.442,1.05602
525.542,1.05671
525.642,1.05742
525.742,1.05812
525.842,1.05884
525.942,1.05955
526.042,1.06028
526.142,1.061
526.242,1.06174
526.342,1.06247
526.442,1.06322
526.542,1.06397
526.642,1.06472
526.742,1.06548
526.842,1.06624
526.942,1.06701
527.042,1.06778
527.142,1.06856
527.242,1.06934
527.342,1.07013
527.442,1.07092
527.542,1.07172
527.642,1.07252
527.742,1.07333
527.842,1.07414
527.942,1.07496
528.042,1.07578
528.142,1.07661
528.242,1.07744
528.342,1.07828
528.442,1.07912
528.542,1.07997
528.642,1.08082
528.742,1.08168
528.842,1.08254
528.942,1.08341
529.042,1.08428
529.142,1.08516
529.242,1.08604
529.342,1.08693
529.442,1.08782
529.542,1.08871
529.642,1.08961
529.742,1.09052
529.842,1.09143
529.942,1.09234
530.042,1.09326
530.142,1.09419
530.242,1.09512
530.342,1.09605
530.442,1.09699
530.542,1.09793
530.642,1.09888
530.742,1.09983
530.842,1.10078
530.942,1.10174
531.042,1.10271
531.142,1.10368
531.242,1.10465
531.342,1.10563
531.442,1.10661
531.542,1.1076
531.642,1.10859
531.742,1.10958
531.842,1.11058
531.942,1.11158
532.042,1.11259
532.142,1.1136
532.242,1.11461
532.342,1.11563
532.442,1.11666
532.542,1.11768
532.642,1.11871
532.742,1.11975
532.842,1.12079
532.942,1.12183
533.042,1.12287
533.142,1.12392
533.242,1.12497
533.342,1.12603
533.442,1.12709
533.542,1.12815
533.642,1.12922
533.742,1.13029
533.842,1.13136
533.942,1.13244
534.042,1.13352
534.142,1.1346
534.242,1.13569
534.342,1.13678
534.442,1.13787
534.542,1.13897
534.642,1.14006
534.742,1.14116
534.842,1.14227
534.942,1.14337
535.042,1.14448
535.142,1.14559
535.242,1.14671
535.342,1.14782
535.442,1.14894
535.542,1.15007
535.642,1.15119
535.742,1.15231
535.842,1.15344
535.942,1.15457
536.042,1.15571
536.142,1.15684
536.242,1.15798
536.342,1.15911
536.442,1.16025
536.542,1.1614
536.642,1.16254
536.742,1.16368
536.842,1.16483
536.942,1.16598
537.042,1.16713
537.142,1.16828
537.242,1.16943
537.342,1.17058
537.442,1.17174
537.542,1.17289
537.642,1.17405
537.742,1.17521
537.842,1.17636
537.942,1.17752
538.042,1.17868
538.142,1.17984
538.242,1.181
538.342,1.18216
538.442,1.18332
538.542,1.18448
538.642,1.18564
538.742,1.18681
538.842,1.18797
538.942,1.18913
539.042,1.19029
539.142,1.19145
539.242,1.19261
539.342,1.19377
539.442,1.19493
539.542,1.19609
539.642,1.19725
539.742,1.19841
539.842,1.19956
539.942,1.20072
540.042,1.20188
540.142,1.20303
540.242,1.20418
540.342,1.20533
540.442,1.20648
540.542,1.20763
540.642,1.20878
540.742,1.20993
540.842,1.21107
540.942,1.21221
541.042,1.21335
541.142,1.21449
541.242,1.21563
541.342,1.21676
541.442,1.2179
541.542,1.21903
541.642,1.22015
541.742,1.22128
541.842,1.2224
541.942,1.22352
542.042,1.22464
542.142,1.22575
542.242,1.22686
542.342,1.22797
542.442,1.22908
542.542,1.23018
542.642,1.23128
542.742,1.23237
542.842,1.23347
542.942,1.23455
543.042,1.23564
543.142,1.23672
543.242,1.2378
543.342,1.23887
543.442,1.23994
543.542,1.241
543.642,1.24206
543.742,1.24312
543.842,1.24417
543.942,1.24522
544.042,1.24626
544.142,1.2473
544.242,1.24833
544.342,1.24936
544.442,1.25039
544.542,1.25141
544.642,1.25242
544.742,1.25343
544.842,1.25443
544.942,1.25543
545.042,1.25642
545.142,1.25741
545.242,1.25839
545.342,1.25936
545.442,1.26033
545.542,1.2613
545.642,1.26225
545.742,1.2632
545.842,1.26415
545.942,1.26509
546.042,1.26602
546.142,1.26695
546.242,1.26787
546.342,1.26878
546.442,1.26969
546.542,1.27059
546.642,1.27148
546.742,1.27236
546.842,1.27324
546.942,1.27412
547.042,1.27498
547.142,1.27584
547.242,1.27669
547.342,1.27753
547.442,1.27837
547.542,1.27919
547.642,1.28002
547.742,1.28083
547.842,1.28163
547.942,1.28243
548.042,1.28322
548.142,1.284
548.242,1.28478
548.342,1.28554
548.442,1.2863
548.542,1.28705
548.642,1.28779
548.742,1.28853
548.842,1.28926
548.942,1.28997
549.042,1.29068
549.142,1.29138
549.242,1.29208
549.342,1.29276
549.442,1.29344
549.542,1.29411
549.642,1.29477
549.742,1.29542
549.842,1.29607
549.942,1.2967
550.042,1.29733
550.142,1.29795
550.242,1.29856
550.342,1.29917
550.442,1.29976
550.542,1.30035
550.642,1.30093
550.742,1.30151
550.842,1.30207
550.942,1.30263
551.042,1.30319
551.142,1.30373
551.242,1.30427
551.342,1.3048
551.442,1.30532
551.542,1.30584
551.642,1.30636
551.742,1.30686
551.842,1.30736
551.942,1.30786
552.042,1.30835
552.142,1.30884
552.242,1.30932
552.342,1.3098
552.442,1.31027
552.542,1.31075
552.642,1.31122
552.742,1.31168
552.842,1.31215
552.942,1.31261
553.042,1.31308
553.142,1.31354
553.242,1.314
553.342,1.31447
553.442,1.31494
553.542,1.31541
553.642,1.31588
553.742,1.31636
553.842,1.31684
553.942,1.31732
554.042,1.31782
554.142,1.31832
554.242,1.31882
554.342,1.31934
554.442,1.31987
554.542,1.3204
554.642,1.32095
554.742,1.32151
554.842,1.32209
554.942,1.32268
555.042,1.32328
555.142,1.32391
555.242,1.32455
555.342,1.32521
555.442,1.32589
555.542,1.32659
555.642,1.32732
555.742,1.32807
555.842,1.32876
555.942,1.32934
556.042,1.32981
556.142,1.33016
556.242,1.33041
556.342,1.33055
556.442,1.33059
556.542,1.33053
556.642,1.33037
556.742,1.33011
556.842,1.32976
556.942,1.32933
557.042,1.3288
557.142,1.3282
557.242,1.32752
557.342,1.32676
557.442,1.32594
557.542,1.32505
557.642,1.32409
557.742,1.32308
557.842,1.32202
557.942,1.32091
558.042,1.31976
558.142,1.31856
558.242,1.31734
558.342,1.31608
558.442,1.3148
558.542,1.31349
558.642,1.31217
558.742,1.31084
558.842,1.30949
558.942,1.30815
559.042,1.3068
559.142,1.30546
559.242,1.30413
559.342,1.30281
559.442,1.30151
559.542,1.30023
559.642,1.29897
559.742,1.29774
559.842,1.29653
559.942,1.29536
560.042,1.29422
560.142,1.29312
560.242,1.29206
560.342,1.29104
560.442,1.29006
560.542,1.28913
560.642,1.28824
560.742,1.28741
560.842,1.28661
560.942,1.28587
561.042,1.28517
561.142,1.28453
561.242,1.28393
561.342,1.28338
561.442,1.28287
561.542,1.28241
561.642,1.282
561.742,1.28163
561.842,1.2813
561.942,1.28101
562.042,1.28076
562.142,1.28055
562.242,1.28036
562.342,1.28021
562.442,1.28009
562.542,1.27998
562.642,1.2799
562.742,1.27984
562.842,1.27979
562.942,1.27975
563.042,1.27972
563.142,1.27969
563.242,1.27966
563.342,1.27963
563.442,1.27958
563.542,1.27952
563.642,1.27945
563.742,1.27935
563.842,1.27923
563.942,1.27908
564.042,1.27889
564.142,1.27867
564.242,1.2784
564.342,1.27809
564.442,1.27773
564.542,1.27732
564.642,1.27685
564.742,1.27631
564.842,1.27572
564.942,1.27506
565.042,1.27433
565.142,1.27352
565.242,1.27264
565.342,1.27168
565.442,1.27064
565.542,1.26952
565.642,1.26831
565.742,1.26702
565.842,1.26564
565.942,1.26424
566.042,1.26284
566.142,1.26145
566.242,1.26007
566.342,1.25869
566.442,1.25732
566.542,1.25596
566.642,1.2546
566.742,1.25324
566.842,1.25188
566.942,1.25052
567.042,1.24915
567.142,1.24779
567.242,1.24643
567.342,1.24505
567.442,1.24368
567.542,1.2423
567.642,1.24091
567.742,1.23952
567.842,1.23811
567.942,1.2367
568.042,1.23528
568.142,1.23385
568.242,1.23241
568.342,1.23096
568.442,1.22949
568.542,1.22802
568.642,1.22653
568.742,1.22503
568.842,1.22352
568.942,1.22199
569.042,1.22045
569.142,1.21889
569.242,1.21732
569.342,1.21574
569.442,1.21414
569.542,1.21253
569.642,1.2109
569.742,1.20926
569.842,1.2076
569.942,1.20593
570.042,1.20425
570.142,1.20255
570.242,1.20083
570.342,1.19911
570.442,1.19737
570.542,1.19561
570.642,1.19384
570.742,1.19206
570.842,1.19027
570.942,1.18847
571.042,1.18665
571.142,1.18482
571.242,1.18298
571.342,1.18113
571.442,1.17927
571.542,1.1774
571.642,1.17552
571.742,1.17363
571.842,1.17173
571.942,1.16982
572.042,1.16791
572.142,1.16599
572.242,1.16406
572.342,1.16213
572.442,1.16019
572.542,1.15825
572.642,1.1563
572.742,1.15435
572.842,1.1524
572.942,1.15044
573.042,1.14848
573.142,1.14652
573.242,1.14456
573.342,1.1426
573.442,1.14064
573.542,1.13868
573.642,1.13672
573.742,1.13477
573.842,1.13282
573.942,1.13087
574.042,1.12892
574.142,1.12698
574.242,1.12504
574.342,1.12311
574.442,1.12118
574.542,1.11926
574.642,1.11735
574.742,1.11544
574.842,1.11355
574.942,1.11166
575.042,1.10978
575.142,1.1079
575.242,1.10604
575.342,1.10419
575.442,1.10235
575.542,1.10052
575.642,1.09871
575.742,1.0969
575.842,1.09511
575.942,1.09333
576.042,1.09156
576.142,1.0898
576.242,1.08806
576.342,1.08634
576.442,1.08462
576.542,1.08293
576.642,1.08124
576.742,1.07958
576.842,1.07793
576.942,1.07629
577.042,1.07467
577.142,1.07307
577.242,1.07148
577.342,1.06991
577.442,1.06836
577.542,1.06682
577.642,1.0653
577.742,1.0638
577.842,1.06232
577.942,1.06085
578.042,1.05941
578.142,1.05798
578.242,1.05657
578.342,1.05517
578.442,1.0538
578.542,1.05244
578.642,1.0511
578.742,1.04978
578.842,1.04848
578.942,1.0472
579.042,1.04594
579.142,1.04469
579.242,1.04347
579.342,1.04226
579.442,1.04107
579.542,1.0399
579.642,1.03875
579.742,1.03761
579.842,1.0365
579.942,1.0354
580.042,1.03432
580.142,1.03326
580.242,1.03222
580.342,1.03119
580.442,1.03019
580.542,1.0292
580.642,1.02823
580.742,1.02728
580.842,1.02634
580.942,1.02542
581.042,1.02452
581.142,1.02364
581.242,1.02277
581.342,1.02193
581.442,1.02109
581.542,1.02028
581.642,1.01948
581.742,1.01869
581.842,1.01793
581.942,1.01717
582.042,1.01644
582.142,1.01572
582.242,1.01501
582.342,1.01432
582.442,1.01365
582.542,1.01299
582.642,1.01234
582.742,1.01171
582.842,1.01109
582.942,1.01049
583.042,1.0099
583.142,1.00933
583.242,1.00876
583.342,1.00821
583.442,1.00768
583.542,1.00716
583.642,1.00665
583.742,1.00615
583.842,1.00566
583.942,1.00519
584.042,1.00473
584.142,1.00427
584.242,1.00384
584.342,1.00341
584.442,1.00299
584.542,1.00258
584.642,1.00219
584.742,1.0018
584.842,1.00143
584.942,1.00106
585.042,1.00071
585.142,1.00036
585.242,1.00003
585.342,0.999699
585.442,0.999381
585.542,0.999072
585.642,0.998771
585.742,0.998479
585.842,0.998195
585.942,0.99792
586.042,0.997652
586.142,0.997392
586.242,0.997139
586.342,0.996894
586.442,0.996656
586.542,0.996425
586.642,0.996201
586.742,0.995984
586.842,0.995773
586.942,0.995569
587.042,0.995371
587.142,0.995179
587.242,0.994993
587.342,0.994813
587.442,0.994638
587.542,0.994469
587.642,0.994306
587.742,0.994147
587.842,0.993994
587.942,0.993845
588.042,0.993702
588.142,0.993563
588.242,0.993428
588.342,0.993298
588.442,0.993173
588.542,0.993051
588.642,0.992934
588.742,0.992821
588.842,0.992711
588.942,0.992605
589.042,0.992503
589.142,0.992404
589.242,0.992309
589.342,0.992217
589.442,0.992128
589.542,0.992043
589.642,0.99196
589.742,0.99188
589.842,0.991804
589.942,0.99173
590.042,0.991658
590.142,0.991589
590.242,0.991523
590.342,0.991459
590.442,0.991398
590.542,0.991338
590.642,0.991281
590.742,0.991227
590.842,0.991174
590.942,0.991123
591.042,0.991074
591.142,0.991027
591.242,0.990982
591.342,0.990938
591.442,0.990896
591.542,0.990856
591.642,0.990817
591.742,0.99078
591.842,0.990744
591.942,0.99071
592.042,0.990677
592.142,0.990646
592.242,0.990615
592.342,0.990586
592.442,0.990558
592.542,0.990531
592.642,0.990506
592.742,0.990481
592.842,0.990457
592.942,0.990435
593.042,0.990413
593.142,0.990392
593.242,0.990372
593.342,0.990353
593.442,0.990335
593.542,0.990317
593.642,0.9903
593.742,0.990284
593.842,0.990269
593.942,0.990254
594.042,0.99024
594.142,0.990226
594.242,0.990213
594.342,0.990201
594.442,0.990189
594.542,0.990178
594.642,0.990167
594.742,0.990157
594.842,0.990147
594.942,0.990138
595.042,0.990129
595.142,0.99012
595.242,0.990112
595.342,0.990104
595.442,0.990097
595.542,0.990089
595.642,0.990083
595.742,0.990076