File: li_2014/400_xrd/curve_2_fit.dat
30.3582,1.07966e-23
30.3682,1.27522e-23
30.3782,1.50579e-23
30.3882,1.77757e-23
30.3982,2.09784e-23
30.4082,2.47514e-23
30.4182,2.91951e-23
30.4282,3.44273e-23
30.4382,4.05863e-23
30.4482,4.78342e-23
30.4582,5.63612e-23
30.4682,6.63904e-23
30.4782,7.8183e-23
30.4882,9.20455e-23
30.4982,1.08337e-22
30.5082,1.27477e-22
30.5182,1.49958e-22
30.5282,1.76356e-22
30.5382,2.07345e-22
30.5482,2.43714e-22
30.5582,2.86385e-22
30.5682,3.36436e-22
30.5782,3.95128e-22
30.5882,4.63933e-22
30.5982,5.44572e-22
30.6082,6.39056e-22
30.6182,7.4973e-22
30.6282,8.79334e-22
30.6382,1.03106e-21
30.6482,1.20865e-21
30.6582,1.41643e-21
30.6682,1.6595e-21
30.6782,1.94374e-21
30.6882,2.27606e-21
30.6982,2.66448e-21
30.7082,3.11834e-21
30.7182,3.64852e-21
30.7282,4.2677e-21
30.7382,4.9906e-21
30.7482,5.83438e-21
30.7582,6.81898e-21
30.7682,7.96759e-21
30.7782,9.30716e-21
30.7882,1.0869e-20
30.7982,1.26895e-20
30.8082,1.4811e-20
30.8182,1.72825e-20
30.8282,2.01609e-20
30.8382,2.35124e-20
30.8482,2.74136e-20
30.8582,3.19535e-20
30.8682,3.72352e-20
30.8782,4.33782e-20
30.8882,5.05211e-20
30.8982,5.88242e-20
30.9082,6.84734e-20
30.9182,7.9684e-20
30.9282,9.27049e-20
30.9382,1.07824e-19
30.9482,1.25376e-19
30.9582,1.45745e-19
30.9682,1.69378e-19
30.9782,1.9679e-19
30.9882,2.28576e-19
30.9982,2.65425e-19
31.0082,3.08132e-19
31.0182,3.57613e-19
31.0282,4.14927e-19
31.0382,4.81298e-19
31.0482,5.58135e-19
31.0582,6.47064e-19
31.0682,7.49959e-19
31.0782,8.68982e-19
31.0882,1.00662e-18
31.0982,1.16575e-18
31.1082,1.34967e-18
31.1182,1.56218e-18
31.1282,1.80767e-18
31.1382,2.09116e-18
31.1482,2.41847e-18
31.1582,2.79625e-18
31.1682,3.23217e-18
31.1782,3.73504e-18
31.1882,4.31498e-18
31.1982,4.98362e-18
31.2082,5.75432e-18
31.2182,6.64241e-18
31.2282,7.6655e-18
31.2382,8.84378e-18
31.2482,1.02004e-17
31.2582,1.1762e-17
31.2682,1.3559e-17
31.2782,1.56263e-17
31.2882,1.80039e-17
31.2982,2.07377e-17
31.3082,2.38802e-17
31.3182,2.74914e-17
31.3282,3.16402e-17
31.3382,3.64053e-17
31.3482,4.18767e-17
31.3582,4.81574e-17
31.3682,5.53651e-17
31.3782,6.36345e-17
31.3882,7.31192e-17
31.3982,8.39949e-17
31.4082,9.64623e-17
31.4182,1.1075e-16
31.4282,1.2712e-16
31.4382,1.45871e-16
31.4482,1.67341e-16
31.4582,1.91921e-16
31.4682,2.20051e-16
31.4782,2.52236e-16
31.4882,2.8905e-16
31.4982,3.31148e-16
31.5082,3.79275e-16
31.5182,4.34279e-16
31.5282,4.97126e-16
31.5382,5.68915e-16
31.5482,6.50894e-16
31.5582,7.44486e-16
31.5682,8.51305e-16
31.5782,9.73187e-16
31.5882,1.11222e-15
31.5982,1.27077e-15
31.6082,1.45153e-15
31.6182,1.65756e-15
31.6282,1.89232e-15
31.6382,2.15975e-15
31.6482,2.4643e-15
31.6582,2.81104e-15
31.6682,3.20571e-15
31.6782,3.6548e-15
31.6882,4.16567e-15
31.6982,4.74668e-15
31.7082,5.40726e-15
31.7182,6.15811e-15
31.7282,7.01133e-15
31.7382,7.98061e-15
31.7482,9.08143e-15
31.7582,1.03313e-14
31.7682,1.175e-14
31.7782,1.336e-14
31.7882,1.51864e-14
31.7982,1.72579e-14
31.8082,1.96066e-14
31.8182,2.2269e-14
31.8282,2.52861e-14
31.8382,2.87042e-14
31.8482,3.25755e-14
31.8582,3.6959e-14
31.8682,4.1921e-14
31.8782,4.75364e-14
31.8882,5.38894e-14
31.8982,6.1075e-14
31.9082,6.92e-14
31.9182,7.83847e-14
31.9282,8.87646e-14
31.9382,1.00492e-13
31.9482,1.13738e-13
31.9582,1.28695e-13
31.9682,1.45579e-13
31.9782,1.64635e-13
31.9882,1.86135e-13
31.9982,2.10385e-13
32.0082,2.37731e-13
32.0182,2.68558e-13
32.0282,3.03301e-13
32.0382,3.42446e-13
32.0482,3.8654e-13
32.0582,4.36193e-13
32.0682,4.92091e-13
32.0782,5.55003e-13
32.0882,6.25788e-13
32.0982,7.05412e-13
32.1082,7.94952e-13
32.1182,8.95615e-13
32.1282,1.00875e-12
32.1382,1.13588e-12
32.1482,1.27868e-12
32.1582,1.43904e-12
32.1682,1.61907e-12
32.1782,1.82114e-12
32.1882,2.04788e-12
32.1982,2.30222e-12
32.2082,2.58746e-12
32.2182,2.90724e-12
32.2282,3.26567e-12
32.2382,3.6673e-12
32.2482,4.11721e-12
32.2582,4.62107e-12
32.2682,5.18519e-12
32.2782,5.81661e-12
32.2882,6.52316e-12
32.2982,7.31355e-12
32.3082,8.1975e-12
32.3182,9.18582e-12
32.3282,1.02905e-11
32.3382,1.15249e-11
32.3482,1.29039e-11
32.3582,1.44441e-11
32.3682,1.61637e-11
32.3782,1.80831e-11
32.3882,2.0225e-11
32.3982,2.26144e-11
32.4082,2.52794e-11
32.4182,2.82508e-11
32.4282,3.15629e-11
32.4382,3.52538e-11
32.4482,3.93657e-11
32.4582,4.39454e-11
32.4682,4.90445e-11
32.4782,5.47206e-11
32.4882,6.10371e-11
32.4982,6.80644e-11
32.5082,7.58802e-11
32.5182,8.45707e-11
32.5282,9.42311e-11
32.5382,1.04967e-10
32.5482,1.16894e-10
32.5582,1.30141e-10
32.5682,1.4485e-10
32.5782,1.61178e-10
32.5882,1.79299e-10
32.5982,1.99402e-10
32.6082,2.21701e-10
32.6182,2.46426e-10
32.6282,2.73834e-10
32.6382,3.04209e-10
32.6482,3.37862e-10
32.6582,3.75137e-10
32.6682,4.16411e-10
32.6782,4.62102e-10
32.6882,5.12668e-10
32.6982,5.68614e-10
32.7082,6.30495e-10
32.7182,6.98921e-10
32.7282,7.74565e-10
32.7382,8.58163e-10
32.7482,9.50528e-10
32.7582,1.05255e-09
32.7682,1.16521e-09
32.7782,1.28957e-09
32.7882,1.42683e-09
32.7982,1.57827e-09
32.8082,1.74531e-09
32.8182,1.92951e-09
32.8282,2.13257e-09
32.8382,2.35637e-09
32.8482,2.60296e-09
32.8582,2.87457e-09
32.8682,3.17366e-09
32.8782,3.50293e-09
32.8882,3.86532e-09
32.8982,4.26404e-09
32.9082,4.70263e-09
32.9182,5.18493e-09
32.9282,5.71515e-09
32.9382,6.29789e-09
32.9482,6.93817e-09
32.9582,7.64149e-09
32.9682,8.41384e-09
32.9782,9.26174e-09
32.9882,1.01923e-08
32.9982,1.12134e-08
33.0082,1.23335e-08
33.0182,1.35617e-08
33.0282,1.49083e-08
33.0382,1.63841e-08
33.0482,1.80011e-08
33.0582,1.97725e-08
33.0682,2.17122e-08
33.0782,2.38358e-08
33.0882,2.61601e-08
33.0982,2.87033e-08
33.1082,3.14851e-08
33.1182,3.45273e-08
33.1282,3.78532e-08
33.1382,4.14883e-08
33.1482,4.54602e-08
33.1582,4.97989e-08
33.1682,5.4537e-08
33.1782,5.97097e-08
33.1882,6.53554e-08
33.1982,7.15156e-08
33.2082,7.82353e-08
33.2182,8.55634e-08
33.2282,9.35526e-08
33.2382,1.0226e-07
33.2482,1.11748e-07
33.2582,1.22083e-07
33.2682,1.33338e-07
33.2782,1.45591e-07
33.2882,1.58928e-07
33.2982,1.73439e-07
33.3082,1.89224e-07
33.3182,2.0639e-07
33.3282,2.25053e-07
33.3382,2.45337e-07
33.3482,2.67377e-07
33.3582,2.91318e-07
33.3682,3.17317e-07
33.3782,3.45544e-07
33.3882,3.76179e-07
33.3982,4.09421e-07
33.4082,4.45479e-07
33.4182,4.84582e-07
33.4282,5.26975e-07
33.4382,5.72923e-07
33.4482,6.22708e-07
33.4582,6.76637e-07
33.4682,7.35038e-07
33.4782,7.98265e-07
33.4882,8.66695e-07
33.4982,9.40738e-07
33.5082,1.02083e-06
33.5182,1.10744e-06
33.5282,1.20108e-06
33.5382,1.30228e-06
33.5482,1.41163e-06
33.5582,1.52975e-06
33.5682,1.65731e-06
33.5782,1.79501e-06
33.5882,1.94363e-06
33.5982,2.10399e-06
33.6082,2.27697e-06
33.6182,2.4635e-06
33.6282,2.66459e-06
33.6382,2.88132e-06
33.6482,3.11484e-06
33.6582,3.36638e-06
33.6682,3.63724e-06
33.6782,3.92884e-06
33.6882,4.24267e-06
33.6982,4.58033e-06
33.7082,4.94353e-06
33.7182,5.33409e-06
33.7282,5.75395e-06
33.7382,6.20519e-06
33.7482,6.69001e-06
33.7582,7.21076e-06
33.7682,7.76994e-06
33.7782,8.37023e-06
33.7882,9.01447e-06
33.7982,9.70567e-06
33.8082,1.0447e-05
33.8182,1.1242e-05
33.8282,1.20942e-05
33.8382,1.30075e-05
33.8482,1.3986e-05
33.8582,1.5034e-05
33.8682,1.61562e-05
33.8782,1.73575e-05
33.8882,1.86431e-05
33.8982,2.00185e-05
33.9082,2.14895e-05
33.9182,2.30624e-05
33.9282,2.47438e-05
33.9382,2.65406e-05
33.9482,2.84601e-05
33.9582,3.05103e-05
33.9682,3.26993e-05
33.9782,3.50359e-05
33.9882,3.75294e-05
33.9982,4.01895e-05
34.0082,4.30265e-05
34.0182,4.60513e-05
34.0282,4.92755e-05
34.0382,5.27111e-05
34.0482,5.63712e-05
34.0582,6.0269e-05
34.0682,6.4419e-05
34.0782,6.88362e-05
34.0882,7.35364e-05
34.0982,7.85363e-05
34.1082,8.38536e-05
34.1182,8.95067e-05
34.1282,9.55151e-05
34.1382,0.000101899
34.1482,0.000108681
34.1582,0.000115883
34.1682,0.000123528
34.1782,0.000131643
34.1882,0.000140252
34.1982,0.000149384
34.2082,0.000159068
34.2182,0.000169335
34.2282,0.000180214
34.2382,0.000191742
34.2482,0.000203951
34.2582,0.00021688
34.2682,0.000230565
34.2782,0.000245049
34.2882,0.000260371
34.2982,0.000276577
34.3082,0.000293713
34.3182,0.000311826
34.3282,0.000330966
34.3382,0.000351187
34.3482,0.000372543
34.3582,0.00039509
34.3682,0.000418889
34.3782,0.000444002
34.3882,0.000470493
34.3982,0.00049843
34.4082,0.000527884
34.4182,0.000558927
34.4282,0.000591636
34.4382,0.00062609
34.4482,0.000662372
34.4582,0.000700567
34.4682,0.000740765
34.4782,0.000783058
34.4882,0.000827541
34.4982,0.000874316
34.5082,0.000923486
34.5182,0.000975157
34.5282,0.00102944
34.5382,0.00108646
34.5482,0.00114632
34.5582,0.00120915
34.5682,0.00127508
34.5782,0.00134425
34.5882,0.00141678
34.5982,0.00149283
34.6082,0.00157253
34.6182,0.00165604
34.6282,0.00174351
34.6382,0.00183511
34.6482,0.00193101
34.6582,0.00203136
34.6682,0.00213635
34.6782,0.00224616
34.6882,0.00236098
34.6982,0.002481
34.7082,0.00260642
34.7182,0.00273743
34.7282,0.00287426
34.7382,0.00301711
34.7482,0.00316621
34.7582,0.00332177
34.7682,0.00348404
34.7782,0.00365325
34.7882,0.00382965
34.7982,0.00401347
34.8082,0.00420499
34.8182,0.00440446
34.8282,0.00461214
34.8382,0.00482831
34.8482,0.00505325
34.8582,0.00528725
34.8682,0.00553058
34.8782,0.00578355
34.8882,0.00604646
34.8982,0.00631962
34.9082,0.00660333
34.9182,0.00689792
34.9282,0.0072037
34.9382,0.00752101
34.9482,0.00785018
34.9582,0.00819154
34.9682,0.00854544
34.9782,0.00891223
34.9882,0.00929224
34.9982,0.00968585
35.0082,0.0100934
35.0182,0.0105153
35.0282,0.0109518
35.0382,0.0114034
35.0482,0.0118704
35.0582,0.0123532
35.0682,0.0128521
35.0782,0.0133676
35.0882,0.0139
35.0982,0.0144498
35.1082,0.0150172
35.1182,0.0156027
35.1282,0.0162066
35.1382,0.0168294
35.1482,0.0174713
35.1582,0.0181329
35.1682,0.0188145
35.1782,0.0195164
35.1882,0.020239
35.1982,0.0209827
35.2082,0.0217478
35.2182,0.0225348
35.2282,0.023344
35.2382,0.0241757
35.2482,0.0250302
35.2582,0.025908
35.2682,0.0268093
35.2782,0.0277345
35.2882,0.0286838
35.2982,0.0296577
35.3082,0.0306563
35.3182,0.03168
35.3282,0.0327291
35.3382,0.0338038
35.3482,0.0349043
35.3582,0.036031
35.3682,0.0371839
35.3782,0.0383634
35.3882,0.0395697
35.3982,0.0408028
35.4082,0.042063
35.4182,0.0433505
35.4282,0.0446653
35.4382,0.0460075
35.4482,0.0473773
35.4582,0.0487747
35.4682,0.0501998
35.4782,0.0516525
35.4882,0.053133
35.4982,0.0546411
35.5082,0.0561769
35.5182,0.0577402
35.5282,0.0593311
35.5382,0.0609493
35.5482,0.0625947
35.5582,0.0642673
35.5682,0.0659667
35.5782,0.0676927
35.5882,0.0694452
35.5982,0.0712238
35.6082,0.0730283
35.6182,0.0748583
35.6282,0.0767134
35.6382,0.0785932
35.6482,0.0804974
35.6582,0.0824255
35.6682,0.084377
35.6782,0.0863513
35.6882,0.0883481
35.6982,0.0903666
35.7082,0.0924062
35.7182,0.0944664
35.7282,0.0965465
35.7382,0.0986457
35.7482,0.100763
35.7582,0.102899
35.7682,0.105051
35.7782,0.107219
35.7882,0.109403
35.7982,0.111601
35.8082,0.113812
35.8182,0.116036
35.8282,0.118271
35.8382,0.120517
35.8482,0.122772
35.8582,0.125036
35.8682,0.127307
35.8782,0.129584
35.8882,0.131867
35.8982,0.134154
35.9082,0.136443
35.9182,0.138734
35.9282,0.141025
35.9382,0.143316
35.9482,0.145604
35.9582,0.147889
35.9682,0.150169
35.9782,0.152444
35.9882,0.154711
35.9982,0.156969
36.0082,0.159217
36.0182,0.161454
36.0282,0.163678
36.0382,0.165888
36.0482,0.168083
36.0582,0.17026
36.0682,0.17242
36.0782,0.174559
36.0882,0.176677
36.0982,0.178773
36.1082,0.180845
36.1182,0.182891
36.1282,0.184911
36.1382,0.186903
36.1482,0.188864
36.1582,0.190796
36.1682,0.192694
36.1782,0.194559
36.1882,0.19639
36.1982,0.198183
36.2082,0.19994
36.2182,0.201657
36.2282,0.203334
36.2382,0.20497
36.2482,0.206563
36.2582,0.208113
36.2682,0.209617
36.2782,0.211076
36.2882,0.212487
36.2982,0.21385
36.3082,0.215163
36.3182,0.216426
36.3282,0.217638
36.3382,0.218798
36.3482,0.219904
36.3582,0.220956
36.3682,0.221954
36.3782,0.222895
36.3882,0.223781
36.3982,0.224609
36.4082,0.225379
36.4182,0.226091
36.4282,0.226744
36.4382,0.227338
36.4482,0.227871
36.4582,0.228344
36.4682,0.228757
36.4782,0.229108
36.4882,0.229398
36.4982,0.229626
36.5082,0.229793
36.5182,0.229897
36.5282,0.229939
36.5382,0.229923
36.5482,0.229856
36.5582,0.229736
36.5682,0.229565
36.5782,0.229343
36.5882,0.22907
36.5982,0.228746
36.6082,0.228371
36.6182,0.227946
36.6282,0.22747
36.6382,0.226945
36.6482,0.22637
36.6582,0.225746
36.6682,0.225073
36.6782,0.224352
36.6882,0.223582
36.6982,0.222766
36.7082,0.221903
36.7182,0.220994
36.7282,0.220039
36.7382,0.219039
36.7482,0.217995
36.7582,0.216907
36.7682,0.215776
36.7782,0.214603
36.7882,0.213388
36.7982,0.212133
36.8082,0.210838
36.8182,0.209504
36.8282,0.208131
36.8382,0.206721
36.8482,0.205275
36.8582,0.203793
36.8682,0.202277
36.8782,0.200727
36.8882,0.199144
36.8982,0.197529
36.9082,0.195883
36.9182,0.194208
36.9282,0.192504
36.9382,0.190771
36.9482,0.189013
36.9582,0.187228
36.9682,0.185419
36.9782,0.183586
36.9882,0.18173
36.9982,0.179853
37.0082,0.177955
37.0182,0.176038
37.0282,0.174102
37.0382,0.172149
37.0482,0.17018
37.0582,0.168196
37.0682,0.166197
37.0782,0.164186
37.0882,0.162162
37.0982,0.160128
37.1082,0.158083
37.1182,0.15603
37.1282,0.153969
37.1382,0.151901
37.1482,0.149827
37.1582,0.147748
37.1682,0.145666
37.1782,0.143581
37.1882,0.141493
37.1982,0.139405
37.2082,0.137317
37.2182,0.13523
37.2282,0.133145
37.2382,0.131063
37.2482,0.128984
37.2582,0.126909
37.2682,0.124841
37.2782,0.122778
37.2882,0.120722
37.2982,0.118674
37.3082,0.116635
37.3182,0.114605
37.3282,0.112585
37.3382,0.110576
37.3482,0.108578
37.3582,0.106593
37.3682,0.10462
37.3782,0.102661
37.3882,0.100716
37.3982,0.0987862
37.4082,0.0968713
37.4182,0.0949721
37.4282,0.0930893
37.4382,0.0912234
37.4482,0.0893749
37.4582,0.0875442
37.4682,0.0857317
37.4782,0.083938
37.4882,0.0821633
37.4982,0.0804082
37.5082,0.0786729
37.5182,0.0769578
37.5282,0.0752632
37.5382,0.0735895
37.5482,0.0719368
37.5582,0.0703055
37.5682,0.0686957
37.5782,0.0671078
37.5882,0.0655419
37.5982,0.0639982
37.6082,0.0624768
37.6182,0.060978
37.6282,0.0595017
37.6382,0.0580482
37.6482,0.0566174
37.6582,0.0552096
37.6682,0.0538247
37.6782,0.0524628
37.6882,0.0511239
37.6982,0.049808
37.7082,0.048515
37.7182,0.0472451
37.7282,0.045998
37.7382,0.0447739
37.7482,0.0435726
37.7582,0.0423939
37.7682,0.041238
37.7782,0.0401045
37.7882,0.0389935
37.7982,0.0379047
37.8082,0.0368381
37.8182,0.0357935
37.8282,0.0347707
37.8382,0.0337695
37.8482,0.0327898
37.8582,0.0318314
37.8682,0.0308941
37.8782,0.0299777
37.8882,0.029082
37.8982,0.0282066
37.9082,0.0273515
37.9182,0.0265164
37.9282,0.025701
37.9382,0.0249051
37.9482,0.0241284
37.9582,0.0233707
37.9682,0.0226318
37.9782,0.0219113
37.9882,0.0212089
37.9982,0.0205245
38.0082,0.0198577
38.0182,0.0192083
38.0282,0.0185759
38.0382,0.0179604
38.0482,0.0173613
38.0582,0.0167785
38.0682,0.0162116
38.0782,0.0156603
38.0882,0.0151244
38.0982,0.0146035
38.1082,0.0140975
38.1182,0.0136059
38.1282,0.0131285
38.1382,0.012665
38.1482,0.0122152
38.1582,0.0117787
38.1682,0.0113552
38.1782,0.0109445
38.1882,0.0105463
38.1982,0.0101603
38.2082,0.00978625
38.2182,0.00942385
38.2282,0.00907283
38.2382,0.00873293
38.2482,0.00840388
38.2582,0.00808542
38.2682,0.00777728
38.2782,0.00747921
38.2882,0.00719095
38.2982,0.00691224
38.3082,0.00664286
38.3182,0.00638253
38.3282,0.00613104
38.3382,0.00588814
38.3482,0.00565359
38.3582,0.00542716
38.3682,0.00520864
38.3782,0.0049978
38.3882,0.00479441
38.3982,0.00459828
38.4082,0.00440917
38.4182,0.0042269
38.4282,0.00405125
38.4382,0.00388203