File: li_2014/400_xrd/curve_total_fit.dat
30.3582,4.75988
30.3682,4.75998
30.3782,4.76008
30.3882,4.76019
30.3982,4.76029
30.4082,4.76039
30.4182,4.7605
30.4282,4.76061
30.4382,4.76072
30.4482,4.76083
30.4582,4.76095
30.4682,4.76106
30.4782,4.76118
30.4882,4.7613
30.4982,4.76143
30.5082,4.76155
30.5182,4.76168
30.5282,4.7618
30.5382,4.76193
30.5482,4.76207
30.5582,4.7622
30.5682,4.76234
30.5782,4.76248
30.5882,4.76262
30.5982,4.76277
30.6082,4.76292
30.6182,4.76307
30.6282,4.76322
30.6382,4.76337
30.6482,4.76353
30.6582,4.76369
30.6682,4.76386
30.6782,4.76403
30.6882,4.7642
30.6982,4.76437
30.7082,4.76455
30.7182,4.76473
30.7282,4.76491
30.7382,4.7651
30.7482,4.76529
30.7582,4.76548
30.7682,4.76568
30.7782,4.76589
30.7882,4.76609
30.7982,4.7663
30.8082,4.76652
30.8182,4.76674
30.8282,4.76696
30.8382,4.76719
30.8482,4.76742
30.8582,4.76766
30.8682,4.7679
30.8782,4.76815
30.8882,4.76841
30.8982,4.76866
30.9082,4.76893
30.9182,4.7692
30.9282,4.76947
30.9382,4.76976
30.9482,4.77004
30.9582,4.77034
30.9682,4.77064
30.9782,4.77095
30.9882,4.77126
30.9982,4.77158
31.0082,4.77191
31.0182,4.77225
31.0282,4.7726
31.0382,4.77295
31.0482,4.77331
31.0582,4.77368
31.0682,4.77406
31.0782,4.77445
31.0882,4.77485
31.0982,4.77525
31.1082,4.77567
31.1182,4.7761
31.1282,4.77654
31.1382,4.77699
31.1482,4.77745
31.1582,4.77793
31.1682,4.77841
31.1782,4.77891
31.1882,4.77942
31.1982,4.77995
31.2082,4.78049
31.2182,4.78104
31.2282,4.78161
31.2382,4.78219
31.2482,4.78279
31.2582,4.78341
31.2682,4.78405
31.2782,4.7847
31.2882,4.78537
31.2982,4.78606
31.3082,4.78678
31.3182,4.78751
31.3282,4.78826
31.3382,4.78904
31.3482,4.78984
31.3582,4.79067
31.3682,4.79152
31.3782,4.79239
31.3882,4.7933
31.3982,4.79423
31.4082,4.7952
31.4182,4.79619
31.4282,4.79722
31.4382,4.79828
31.4482,4.79938
31.4582,4.80051
31.4682,4.80168
31.4782,4.80289
31.4882,4.80415
31.4982,4.80545
31.5082,4.80679
31.5182,4.80819
31.5282,4.80963
31.5382,4.81113
31.5482,4.81268
31.5582,4.81429
31.5682,4.81597
31.5782,4.8177
31.5882,4.81951
31.5982,4.82138
31.6082,4.82333
31.6182,4.82536
31.6282,4.82747
31.6382,4.82967
31.6482,4.83197
31.6582,4.83436
31.6682,4.83685
31.6782,4.83945
31.6882,4.84216
31.6982,4.845
31.7082,4.84796
31.7182,4.85106
31.7282,4.85431
31.7382,4.85771
31.7482,4.86127
31.7582,4.865
31.7682,4.86892
31.7782,4.87303
31.7882,4.87735
31.7982,4.88189
31.8082,4.88667
31.8182,4.8917
31.8282,4.897
31.8382,4.90259
31.8482,4.90849
31.8582,4.91472
31.8682,4.9213
31.8782,4.92826
31.8882,4.93563
31.8982,4.94343
31.9082,4.95171
31.9182,4.96049
31.9282,4.96982
31.9382,4.97973
31.9482,4.99028
31.9582,5.0015
31.9682,5.01346
31.9782,5.02621
31.9882,5.03981
31.9982,5.05433
32.0082,5.06984
32.0182,5.08641
32.0282,5.10414
32.0382,5.1231
32.0482,5.14338
32.0582,5.16508
32.0682,5.18829
32.0782,5.21311
32.0882,5.23963
32.0982,5.26794
32.1082,5.29812
32.1182,5.33023
32.1282,5.36432
32.1382,5.40039
32.1482,5.43842
32.1582,5.47831
32.1682,5.5199
32.1782,5.56297
32.1882,5.60717
32.1982,5.65204
32.2082,5.69699
32.2182,5.74133
32.2282,5.78419
32.2382,5.82464
32.2482,5.86165
32.2582,5.89415
32.2682,5.92112
32.2782,5.94165
32.2882,5.95498
32.2982,5.96062
32.3082,5.95835
32.3182,5.94828
32.3282,5.93079
32.3382,5.90656
32.3482,5.87645
32.3582,5.84145
32.3682,5.80262
32.3782,5.761
32.3882,5.71757
32.3982,5.67323
32.4082,5.62873
32.4182,5.5847
32.4282,5.54165
32.4382,5.49996
32.4482,5.4599
32.4582,5.42165
32.4682,5.38534
32.4782,5.35101
32.4882,5.31865
32.4982,5.28826
32.5082,5.25975
32.5182,5.23308
32.5282,5.20813
32.5382,5.18484
32.5482,5.16309
32.5582,5.1428
32.5682,5.12386
32.5782,5.1062
32.5882,5.08972
32.5982,5.07433
32.6082,5.05997
32.6182,5.04655
32.6282,5.03401
32.6382,5.02229
32.6482,5.01132
32.6582,5.00106
32.6682,4.99145
32.6782,4.98244
32.6882,4.974
32.6982,4.96608
32.7082,4.95864
32.7182,4.95166
32.7282,4.9451
32.7382,4.93893
32.7482,4.93313
32.7582,4.92767
32.7682,4.92253
32.7782,4.91769
32.7882,4.91313
32.7982,4.90883
32.8082,4.90478
32.8182,4.90096
32.8282,4.89735
32.8382,4.89395
32.8482,4.89074
32.8582,4.88771
32.8682,4.88485
32.8782,4.88215
32.8882,4.8796
32.8982,4.8772
32.9082,4.87493
32.9182,4.87279
32.9282,4.87077
32.9382,4.86886
32.9482,4.86706
32.9582,4.86537
32.9682,4.86377
32.9782,4.86227
32.9882,4.86085
32.9982,4.85952
33.0082,4.85827
33.0182,4.8571
33.0282,4.85599
33.0382,4.85496
33.0482,4.85399
33.0582,4.85309
33.0682,4.85225
33.0782,4.85146
33.0882,4.85073
33.0982,4.85006
33.1082,4.84943
33.1182,4.84885
33.1282,4.84832
33.1382,4.84783
33.1482,4.84739
33.1582,4.84699
33.1682,4.84662
33.1782,4.8463
33.1882,4.84601
33.1982,4.84575
33.2082,4.84553
33.2182,4.84534
33.2282,4.84518
33.2382,4.84505
33.2482,4.84495
33.2582,4.84488
33.2682,4.84483
33.2782,4.84481
33.2882,4.84481
33.2982,4.84484
33.3082,4.84489
33.3182,4.84496
33.3282,4.84505
33.3382,4.84517
33.3482,4.8453
33.3582,4.84545
33.3682,4.84562
33.3782,4.84581
33.3882,4.84601
33.3982,4.84623
33.4082,4.84646
33.4182,4.84671
33.4282,4.84698
33.4382,4.84725
33.4482,4.84754
33.4582,4.84785
33.4682,4.84816
33.4782,4.84849
33.4882,4.84883
33.4982,4.84917
33.5082,4.84953
33.5182,4.8499
33.5282,4.85028
33.5382,4.85066
33.5482,4.85105
33.5582,4.85146
33.5682,4.85186
33.5782,4.85228
33.5882,4.8527
33.5982,4.85313
33.6082,4.85356
33.6182,4.854
33.6282,4.85445
33.6382,4.8549
33.6482,4.85535
33.6582,4.85581
33.6682,4.85627
33.6782,4.85674
33.6882,4.8572
33.6982,4.85767
33.7082,4.85815
33.7182,4.85862
33.7282,4.8591
33.7382,4.85958
33.7482,4.86006
33.7582,4.86053
33.7682,4.86101
33.7782,4.86149
33.7882,4.86197
33.7982,4.86245
33.8082,4.86293
33.8182,4.86341
33.8282,4.86389
33.8382,4.86436
33.8482,4.86484
33.8582,4.86531
33.8682,4.86578
33.8782,4.86624
33.8882,4.86671
33.8982,4.86717
33.9082,4.86762
33.9182,4.86808
33.9282,4.86853
33.9382,4.86897
33.9482,4.86942
33.9582,4.86985
33.9682,4.87028
33.9782,4.87071
33.9882,4.87113
33.9982,4.87155
34.0082,4.87196
34.0182,4.87237
34.0282,4.87277
34.0382,4.87316
34.0482,4.87355
34.0582,4.87393
34.0682,4.87431
34.0782,4.87467
34.0882,4.87503
34.0982,4.87539
34.1082,4.87573
34.1182,4.87607
34.1282,4.8764
34.1382,4.87672
34.1482,4.87704
34.1582,4.87735
34.1682,4.87764
34.1782,4.87793
34.1882,4.87822
34.1982,4.87849
34.2082,4.87875
34.2182,4.87901
34.2282,4.87925
34.2382,4.87949
34.2482,4.87972
34.2582,4.87994
34.2682,4.88015
34.2782,4.88035
34.2882,4.88054
34.2982,4.88072
34.3082,4.88089
34.3182,4.88105
34.3282,4.88121
34.3382,4.88135
34.3482,4.88148
34.3582,4.8816
34.3682,4.88172
34.3782,4.88182
34.3882,4.88192
34.3982,4.882
34.4082,4.88207
34.4182,4.88214
34.4282,4.88219
34.4382,4.88224
34.4482,4.88227
34.4582,4.8823
34.4682,4.88231
34.4782,4.88232
34.4882,4.88232
34.4982,4.8823
34.5082,4.88228
34.5182,4.88226
34.5282,4.88223
34.5382,4.88221
34.5482,4.88217
34.5582,4.88214
34.5682,4.8821
34.5782,4.88206
34.5882,4.88202
34.5982,4.88197
34.6082,4.88192
34.6182,4.88187
34.6282,4.88182
34.6382,4.88177
34.6482,4.88171
34.6582,4.88166
34.6682,4.8816
34.6782,4.88154
34.6882,4.88148
34.6982,4.88142
34.7082,4.88136
34.7182,4.8813
34.7282,4.88124
34.7382,4.88118
34.7482,4.88112
34.7582,4.88106
34.7682,4.881
34.7782,4.88095
34.7882,4.88089
34.7982,4.88084
34.8082,4.88079
34.8182,4.88074
34.8282,4.88069
34.8382,4.88065
34.8482,4.8806
34.8582,4.88057
34.8682,4.88053
34.8782,4.88051
34.8882,4.88048
34.8982,4.88046
34.9082,4.88045
34.9182,4.88044
34.9282,4.88043
34.9382,4.88044
34.9482,4.88045
34.9582,4.88046
34.9682,4.88049
34.9782,4.88052
34.9882,4.88056
34.9982,4.88061
35.0082,4.88067
35.0182,4.88073
35.0282,4.88081
35.0382,4.8809
35.0482,4.88099
35.0582,4.8811
35.0682,4.88122
35.0782,4.88136
35.0882,4.8815
35.0982,4.88166
35.1082,4.88183
35.1182,4.88201
35.1282,4.88221
35.1382,4.88242
35.1482,4.88265
35.1582,4.88289
35.1682,4.88315
35.1782,4.88342
35.1882,4.88371
35.1982,4.88402
35.2082,4.88434
35.2182,4.88469
35.2282,4.88505
35.2382,4.88543
35.2482,4.88583
35.2582,4.88625
35.2682,4.88668
35.2782,4.88714
35.2882,4.88762
35.2982,4.88812
35.3082,4.88864
35.3182,4.88919
35.3282,4.88975
35.3382,4.89034
35.3482,4.89095
35.3582,4.89158
35.3682,4.89224
35.3782,4.89292
35.3882,4.89363
35.3982,4.89435
35.4082,4.89511
35.4182,4.89588
35.4282,4.89669
35.4382,4.89751
35.4482,4.89836
35.4582,4.89924
35.4682,4.90014
35.4782,4.90107
35.4882,4.90202
35.4982,4.903
35.5082,4.904
35.5182,4.90503
35.5282,4.90609
35.5382,4.90717
35.5482,4.90827
35.5582,4.9094
35.5682,4.91056
35.5782,4.91174
35.5882,4.91295
35.5982,4.91418
35.6082,4.91543
35.6182,4.91671
35.6282,4.91801
35.6382,4.91934
35.6482,4.92069
35.6582,4.92206
35.6682,4.92345
35.6782,4.92487
35.6882,4.9263
35.6982,4.92776
35.7082,4.92924
35.7182,4.93074
35.7282,4.93225
35.7382,4.93379
35.7482,4.93534
35.7582,4.93691
35.7682,4.9385
35.7782,4.9401
35.7882,4.94172
35.7982,4.94335
35.8082,4.945
35.8182,4.94665
35.8282,4.94832
35.8382,4.95
35.8482,4.95169
35.8582,4.95338
35.8682,4.95509
35.8782,4.9568
35.8882,4.95852
35.8982,4.96024
35.9082,4.96196
35.9182,4.96369
35.9282,4.96541
35.9382,4.96714
35.9482,4.96886
35.9582,4.97058
35.9682,4.9723
35.9782,4.97401
35.9882,4.97572
35.9982,4.97742
36.0082,4.97911
36.0182,4.98079
36.0282,4.98245
36.0382,4.98411
36.0482,4.98574
36.0582,4.98737
36.0682,4.98897
36.0782,4.99056
36.0882,4.99213
36.0982,4.99368
36.1082,4.9952
36.1182,4.9967
36.1282,4.99818
36.1382,4.99962
36.1482,5.00104
36.1582,5.00243
36.1682,5.00379
36.1782,5.00512
36.1882,5.00642
36.1982,5.00768
36.2082,5.0089
36.2182,5.01009
36.2282,5.01124
36.2382,5.01235
36.2482,5.01342
36.2582,5.01445
36.2682,5.01543
36.2782,5.01637
36.2882,5.01726
36.2982,5.01811
36.3082,5.01892
36.3182,5.01967
36.3282,5.02037
36.3382,5.02103
36.3482,5.02163
36.3582,5.02218
36.3682,5.02268
36.3782,5.02313
36.3882,5.02352
36.3982,5.02386
36.4082,5.02414
36.4182,5.02437
36.4282,5.02454
36.4382,5.02465
36.4482,5.0247
36.4582,5.0247
36.4682,5.02464
36.4782,5.02452
36.4882,5.02434
36.4982,5.02411
36.5082,5.02381
36.5182,5.02346
36.5282,5.02304
36.5382,5.02257
36.5482,5.02205
36.5582,5.02148
36.5682,5.02087
36.5782,5.0202
36.5882,5.01949
36.5982,5.01873
36.6082,5.01792
36.6182,5.01706
36.6282,5.01616
36.6382,5.01521
36.6482,5.01421
36.6582,5.01316
36.6682,5.01207
36.6782,5.01094
36.6882,5.00976
36.6982,5.00853
36.7082,5.00726
36.7182,5.00595
36.7282,5.0046
36.7382,5.0032
36.7482,5.00176
36.7582,5.00029
36.7682,4.99877
36.7782,4.99721
36.7882,4.99562
36.7982,4.99398
36.8082,4.99231
36.8182,4.99061
36.8282,4.98886
36.8382,4.98709
36.8482,4.98528
36.8582,4.98344
36.8682,4.98156
36.8782,4.97966
36.8882,4.97772
36.8982,4.97576
36.9082,4.97377
36.9182,4.97175
36.9282,4.96971
36.9382,4.96764
36.9482,4.96555
36.9582,4.96344
36.9682,4.9613
36.9782,4.95914
36.9882,4.95697
36.9982,4.95477
37.0082,4.95256
37.0182,4.95033
37.0282,4.94808
37.0382,4.94583
37.0482,4.94355
37.0582,4.94127
37.0682,4.93897
37.0782,4.93667
37.0882,4.93435
37.0982,4.93203
37.1082,4.9297
37.1182,4.92736
37.1282,4.92502
37.1382,4.92268
37.1482,4.92033
37.1582,4.91798
37.1682,4.91563
37.1782,4.91328
37.1882,4.91093
37.1982,4.90858
37.2082,4.90623
37.2182,4.90389
37.2282,4.90156
37.2382,4.89922
37.2482,4.8969
37.2582,4.89458
37.2682,4.89227
37.2782,4.88997
37.2882,4.88768
37.2982,4.8854
37.3082,4.88313
37.3182,4.88087
37.3282,4.87863
37.3382,4.87639
37.3482,4.87418
37.3582,4.87197
37.3682,4.86979
37.3782,4.86762
37.3882,4.86546
37.3982,4.86332
37.4082,4.8612
37.4182,4.8591
37.4282,4.85702
37.4382,4.85496
37.4482,4.85291
37.4582,4.85089
37.4682,4.84889
37.4782,4.84691
37.4882,4.84495
37.4982,4.84301
37.5082,4.84109
37.5182,4.8392
37.5282,4.83733
37.5382,4.83548
37.5482,4.83365
37.5582,4.83185
37.5682,4.83008
37.5782,4.82832
37.5882,4.82659
37.5982,4.82489
37.6082,4.82321
37.6182,4.82155
37.6282,4.81992
37.6382,4.81832
37.6482,4.81673
37.6582,4.81518
37.6682,4.81365
37.6782,4.81214
37.6882,4.81066
37.6982,4.8092
37.7082,4.80777
37.7182,4.80636
37.7282,4.80498
37.7382,4.80362
37.7482,4.80229
37.7582,4.80098
37.7682,4.7997
37.7782,4.79844
37.7882,4.79721
37.7982,4.79599
37.8082,4.79481
37.8182,4.79364
37.8282,4.7925
37.8382,4.79139
37.8482,4.79029
37.8582,4.78922
37.8682,4.78818
37.8782,4.78715
37.8882,4.78615
37.8982,4.78517
37.9082,4.78421
37.9182,4.78327
37.9282,4.78236
37.9382,4.78146
37.9482,4.78059
37.9582,4.77973
37.9682,4.7789
37.9782,4.77808
37.9882,4.77729
37.9982,4.77651
38.0082,4.77576
38.0182,4.77502
38.0282,4.7743
38.0382,4.7736
38.0482,4.77292
38.0582,4.77225
38.0682,4.77161
38.0782,4.77098
38.0882,4.77036
38.0982,4.76976
38.1082,4.76918
38.1182,4.76861
38.1282,4.76806
38.1382,4.76753
38.1482,4.76701
38.1582,4.7665
38.1682,4.76601
38.1782,4.76553
38.1882,4.76506
38.1982,4.76461
38.2082,4.76417
38.2182,4.76375
38.2282,4.76333
38.2382,4.76293
38.2482,4.76254
38.2582,4.76216
38.2682,4.7618
38.2782,4.76144
38.2882,4.7611
38.2982,4.76076
38.3082,4.76044
38.3182,4.76013
38.3282,4.75982
38.3382,4.75953
38.3482,4.75924
38.3582,4.75896
38.3682,4.7587
38.3782,4.75844
38.3882,4.75819
38.3982,4.75794
38.4082,4.75771
38.4182,4.75748
38.4282,4.75726
38.4382,4.75705