File: li_2014/400_xrd/curve_1_fit.dat
30.3582,0.0095421
30.3682,0.00964035
30.3782,0.00974012
30.3882,0.00984144
30.3982,0.00994435
30.4082,0.0100489
30.4182,0.010155
30.4282,0.0102629
30.4382,0.0103725
30.4482,0.0104838
30.4582,0.010597
30.4682,0.010712
30.4782,0.0108288
30.4882,0.0109476
30.4982,0.0110683
30.5082,0.011191
30.5182,0.0113158
30.5282,0.0114427
30.5382,0.0115717
30.5482,0.0117029
30.5582,0.0118363
30.5682,0.011972
30.5782,0.0121101
30.5882,0.0122505
30.5982,0.0123934
30.6082,0.0125389
30.6182,0.0126868
30.6282,0.0128374
30.6382,0.0129907
30.6482,0.0131467
30.6582,0.0133056
30.6682,0.0134673
30.6782,0.013632
30.6882,0.0137997
30.6982,0.0139706
30.7082,0.0141446
30.7182,0.0143218
30.7282,0.0145024
30.7382,0.0146865
30.7482,0.014874
30.7582,0.0150651
30.7682,0.01526
30.7782,0.0154586
30.7882,0.0156611
30.7982,0.0158676
30.8082,0.0160781
30.8182,0.0162929
30.8282,0.016512
30.8382,0.0167355
30.8482,0.0169636
30.8582,0.0171963
30.8682,0.0174339
30.8782,0.0176763
30.8882,0.0179239
30.8982,0.0181766
30.9082,0.0184347
30.9182,0.0186983
30.9282,0.0189676
30.9382,0.0192427
30.9482,0.0195238
30.9582,0.019811
30.9682,0.0201046
30.9782,0.0204048
30.9882,0.0207117
30.9982,0.0210255
31.0082,0.0213465
31.0182,0.0216748
31.0282,0.0220107
31.0382,0.0223544
31.0482,0.0227062
31.0582,0.0230663
31.0682,0.023435
31.0782,0.0238125
31.0882,0.0241992
31.0982,0.0245952
31.1082,0.0250011
31.1182,0.0254169
31.1282,0.0258432
31.1382,0.0262802
31.1482,0.0267283
31.1582,0.0271879
31.1682,0.0276593
31.1782,0.028143
31.1882,0.0286393
31.1982,0.0291489
31.2082,0.029672
31.2182,0.0302092
31.2282,0.030761
31.2382,0.0313279
31.2482,0.0319105
31.2582,0.0325094
31.2682,0.0331251
31.2782,0.0337582
31.2882,0.0344096
31.2982,0.0350797
31.3082,0.0357695
31.3182,0.0364796
31.3282,0.0372108
31.3382,0.0379639
31.3482,0.0387399
31.3582,0.0395397
31.3682,0.0403642
31.3782,0.0412144
31.3882,0.0420915
31.3982,0.0429965
31.4082,0.0439306
31.4182,0.0448951
31.4282,0.0458913
31.4382,0.0469205
31.4482,0.0479843
31.4582,0.0490842
31.4682,0.0502217
31.4782,0.0513987
31.4882,0.0526168
31.4982,0.0538781
31.5082,0.0551846
31.5182,0.0565383
31.5282,0.0579416
31.5382,0.0593969
31.5482,0.0609068
31.5582,0.0624738
31.5682,0.064101
31.5782,0.0657913
31.5882,0.0675479
31.5982,0.0693745
31.6082,0.0712745
31.6182,0.0732519
31.6282,0.0753109
31.6382,0.0774559
31.6482,0.0796916
31.6582,0.0820231
31.6682,0.0844558
31.6782,0.0869955
31.6882,0.0896483
31.6982,0.0924208
31.7082,0.0953202
31.7182,0.098354
31.7282,0.10153
31.7382,0.104858
31.7482,0.108347
31.7582,0.112006
31.7682,0.115847
31.7782,0.119882
31.7882,0.124123
31.7982,0.128583
31.8082,0.133279
31.8182,0.138224
31.8282,0.143438
31.8382,0.148937
31.8482,0.154743
31.8582,0.160877
31.8682,0.167363
31.8782,0.174226
31.8882,0.181495
31.8982,0.189198
31.9082,0.19737
31.9182,0.206045
31.9282,0.215261
31.9382,0.225062
31.9482,0.235491
31.9582,0.246597
31.9682,0.258435
31.9782,0.27106
31.9882,0.284535
31.9982,0.298926
32.0082,0.314305
32.0182,0.330748
32.0282,0.348336
32.0382,0.367155
32.0482,0.387295
32.0582,0.408848
32.0682,0.43191
32.0782,0.456577
32.0882,0.482943
32.0982,0.511096
32.1082,0.541115
32.1182,0.573064
32.1282,0.606983
32.1382,0.642884
32.1482,0.680733
32.1582,0.720444
32.1682,0.761861
32.1782,0.804744
32.1882,0.848751
32.1982,0.893425
32.2082,0.938186
32.2182,0.982318
32.2282,1.02498
32.2382,1.06522
32.2482,1.10202
32.2582,1.1343
32.2682,1.16106
32.2782,1.18136
32.2882,1.19446
32.2982,1.19987
32.3082,1.19736
32.3182,1.18705
32.3282,1.16932
32.3382,1.14484
32.3482,1.11448
32.3582,1.07922
32.3682,1.04012
32.3782,0.998234
32.3882,0.954539
32.3982,0.90992
32.4082,0.865139
32.4182,0.820827
32.4282,0.777485
32.4382,0.735496
32.4482,0.695135
32.4582,0.656587
32.4682,0.619963
32.4782,0.585314
32.4882,0.552643
32.4982,0.52192
32.5082,0.493089
32.5182,0.466076
32.5282,0.440794
32.5382,0.417153
32.5482,0.395056
32.5582,0.374407
32.5682,0.355113
32.5782,0.337082
32.5882,0.320228
32.5982,0.304466
32.6082,0.28972
32.6182,0.275916
32.6282,0.262985
32.6382,0.250865
32.6482,0.239496
32.6582,0.228823
32.6682,0.218797
32.6782,0.209371
32.6882,0.200501
32.6982,0.192149
32.7082,0.184277
32.7182,0.176852
32.7282,0.169843
32.7382,0.163221
32.7482,0.156961
32.7582,0.151037
32.7682,0.145427
32.7782,0.14011
32.7882,0.135068
32.7982,0.130283
32.8082,0.125738
32.8182,0.121418
32.8282,0.117309
32.8382,0.113398
32.8482,0.109673
32.8582,0.106123
32.8682,0.102737
32.8782,0.0995057
32.8882,0.0964204
32.8982,0.0934725
32.9082,0.0906541
32.9182,0.0879581
32.9282,0.0853775
32.9382,0.0829062
32.9482,0.0805381
32.9582,0.0782677
32.9682,0.0760899
32.9782,0.0739998
32.9882,0.0719929
32.9982,0.0700648
33.0082,0.0682117
33.0182,0.0664297
33.0282,0.0647154
33.0382,0.0630654
33.0482,0.0614765
33.0582,0.059946
33.0682,0.0584709
33.0782,0.0570488
33.0882,0.0556771
33.0982,0.0543535
33.1082,0.0530758
33.1182,0.051842
33.1282,0.0506501
33.1382,0.0494983
33.1482,0.0483847
33.1582,0.0473079
33.1682,0.0462661
33.1782,0.0452579
33.1882,0.0442819
33.1982,0.0433367
33.2082,0.0424211
33.2182,0.0415339
33.2282,0.040674
33.2382,0.0398401
33.2482,0.0390314
33.2582,0.0382467
33.2682,0.0374853
33.2782,0.0367461
33.2882,0.0360284
33.2982,0.0353312
33.3082,0.0346539
33.3182,0.0339957
33.3282,0.033356
33.3382,0.0327339
33.3482,0.0321289
33.3582,0.0315404
33.3682,0.0309678
33.3782,0.0304105
33.3882,0.029868
33.3982,0.0293397
33.4082,0.0288253
33.4182,0.0283241
33.4282,0.0278358
33.4382,0.0273599
33.4482,0.026896
33.4582,0.0264438
33.4682,0.0260027
33.4782,0.0255726
33.4882,0.0251529
33.4982,0.0247434
33.5082,0.0243438
33.5182,0.0239537
33.5282,0.0235728
33.5382,0.0232009
33.5482,0.0228377
33.5582,0.0224829
33.5682,0.0221362
33.5782,0.0217975
33.5882,0.0214664
33.5982,0.0211427
33.6082,0.0208263
33.6182,0.0205169
33.6282,0.0202143
33.6382,0.0199183
33.6482,0.0196287
33.6582,0.0193454
33.6682,0.0190681
33.6782,0.0187967
33.6882,0.018531
33.6982,0.0182709
33.7082,0.0180162
33.7182,0.0177668
33.7282,0.0175225
33.7382,0.0172832
33.7482,0.0170487
33.7582,0.0168189
33.7682,0.0165937
33.7782,0.016373
33.7882,0.0161567
33.7982,0.0159445
33.8082,0.0157366
33.8182,0.0155326
33.8282,0.0153326
33.8382,0.0151364
33.8482,0.0149439
33.8582,0.014755
33.8682,0.0145697
33.8782,0.0143879
33.8882,0.0142094
33.8982,0.0140342
33.9082,0.0138622
33.9182,0.0136934
33.9282,0.0135276
33.9382,0.0133648
33.9482,0.0132049
33.9582,0.0130478
33.9682,0.0128935
33.9782,0.0127419
33.9882,0.012593
33.9982,0.0124467
34.0082,0.0123028
34.0182,0.0121615
34.0282,0.0120226
34.0382,0.011886
34.0482,0.0117517
34.0582,0.0116197
34.0682,0.0114899
34.0782,0.0113623
34.0882,0.0112367
34.0982,0.0111132
34.1082,0.0109918
34.1182,0.0108723
34.1282,0.0107547
34.1382,0.0106391
34.1482,0.0105253
34.1582,0.0104133
34.1682,0.010303
34.1782,0.0101945
34.1882,0.0100877
34.1982,0.00998262
34.2082,0.00987912
34.2182,0.00977722
34.2282,0.00967688
34.2382,0.00957808
34.2482,0.00948077
34.2582,0.00938494
34.2682,0.00929055
34.2782,0.00919758
34.2882,0.00910599
34.2982,0.00901576
34.3082,0.00892685
34.3182,0.00883926
34.3282,0.00875294
34.3382,0.00866788
34.3482,0.00858405
34.3582,0.00850143
34.3682,0.00841999
34.3782,0.00833971
34.3882,0.00826058
34.3982,0.00818256
34.4082,0.00810564
34.4182,0.0080298
34.4282,0.00795501
34.4382,0.00788126
34.4482,0.00780853
34.4582,0.0077368
34.4682,0.00766605
34.4782,0.00759627
34.4882,0.00752743
34.4982,0.00745953
34.5082,0.00739253
34.5182,0.00732643
34.5282,0.00726121
34.5382,0.00719686
34.5482,0.00713336
34.5582,0.00707069
34.5682,0.00700885
34.5782,0.00694781
34.5882,0.00688756
34.5982,0.00682809
34.6082,0.00676939
34.6182,0.00671143
34.6282,0.00665422
34.6382,0.00659774
34.6482,0.00654197
34.6582,0.0064869
34.6682,0.00643253
34.6782,0.00637883
34.6882,0.0063258
34.6982,0.00627343
34.7082,0.00622171
34.7182,0.00617062
34.7282,0.00612016
34.7382,0.00607031
34.7482,0.00602107
34.7582,0.00597243
34.7682,0.00592437
34.7782,0.00587688
34.7882,0.00582997
34.7982,0.00578361
34.8082,0.00573781
34.8182,0.00569254
34.8282,0.00564781
34.8382,0.0056036
34.8482,0.00555991
34.8582,0.00551673
34.8682,0.00547404
34.8782,0.00543185
34.8882,0.00539015
34.8982,0.00534892
34.9082,0.00530816
34.9182,0.00526787
34.9282,0.00522803
34.9382,0.00518864
34.9482,0.0051497
34.9582,0.00511119
34.9682,0.00507311
34.9782,0.00503545
34.9882,0.00499822
34.9982,0.00496139
35.0082,0.00492497
35.0182,0.00488894
35.0282,0.00485331
35.0382,0.00481807
35.0482,0.00478321
35.0582,0.00474872
35.0682,0.00471461
35.0782,0.00468086
35.0882,0.00464748
35.0982,0.00461445
35.1082,0.00458177
35.1182,0.00454943
35.1282,0.00451744
35.1382,0.00448578
35.1482,0.00445445
35.1582,0.00442345
35.1682,0.00439277
35.1782,0.00436241
35.1882,0.00433236
35.1982,0.00430262
35.2082,0.00427319
35.2182,0.00424406
35.2282,0.00421522
35.2382,0.00418667
35.2482,0.00415842
35.2582,0.00413045
35.2682,0.00410276
35.2782,0.00407535
35.2882,0.00404821
35.2982,0.00402134
35.3082,0.00399473
35.3182,0.00396839
35.3282,0.00394231
35.3382,0.00391649
35.3482,0.00389092
35.3582,0.00386559
35.3682,0.00384052
35.3782,0.00381568
35.3882,0.00379109
35.3982,0.00376673
35.4082,0.00374261
35.4182,0.00371872
35.4282,0.00369505
35.4382,0.00367161
35.4482,0.0036484
35.4582,0.0036254
35.4682,0.00360262
35.4782,0.00358005
35.4882,0.00355769
35.4982,0.00353554
35.5082,0.0035136
35.5182,0.00349186
35.5282,0.00347032
35.5382,0.00344899
35.5482,0.00342784
35.5582,0.00340689
35.5682,0.00338613
35.5782,0.00336556
35.5882,0.00334518
35.5982,0.00332498
35.6082,0.00330497
35.6182,0.00328513
35.6282,0.00326547
35.6382,0.00324599
35.6482,0.00322668
35.6582,0.00320755
35.6682,0.00318858
35.6782,0.00316978
35.6882,0.00315114
35.6982,0.00313267
35.7082,0.00311436
35.7182,0.00309622
35.7282,0.00307822
35.7382,0.00306039
35.7482,0.00304271
35.7582,0.00302518
35.7682,0.00300781
35.7782,0.00299058
35.7882,0.0029735
35.7982,0.00295656
35.8082,0.00293977
35.8182,0.00292313
35.8282,0.00290662
35.8382,0.00289025
35.8482,0.00287402
35.8582,0.00285793
35.8682,0.00284197
35.8782,0.00282614
35.8882,0.00281045
35.8982,0.00279489
35.9082,0.00277945
35.9182,0.00276415
35.9282,0.00274896
35.9382,0.00273391
35.9482,0.00271897
35.9582,0.00270416
35.9682,0.00268947
35.9782,0.0026749
35.9882,0.00266045
35.9982,0.00264611
36.0082,0.00263189
36.0182,0.00261778
36.0282,0.00260379
36.0382,0.00258991
36.0482,0.00257613
36.0582,0.00256247
36.0682,0.00254892
36.0782,0.00253547
36.0882,0.00252213
36.0982,0.0025089
36.1082,0.00249576
36.1182,0.00248273
36.1282,0.00246981
36.1382,0.00245698
36.1482,0.00244425
36.1582,0.00243162
36.1682,0.00241909
36.1782,0.00240666
36.1882,0.00239432
36.1982,0.00238208
36.2082,0.00236993
36.2182,0.00235787
36.2282,0.0023459
36.2382,0.00233403
36.2482,0.00232224
36.2582,0.00231054
36.2682,0.00229894
36.2782,0.00228741
36.2882,0.00227598
36.2982,0.00226463
36.3082,0.00225337
36.3182,0.00224218
36.3282,0.00223109
36.3382,0.00222007
36.3482,0.00220914
36.3582,0.00219828
36.3682,0.00218751
36.3782,0.00217681
36.3882,0.00216619
36.3982,0.00215566
36.4082,0.00214519
36.4182,0.00213481
36.4282,0.00212449
36.4382,0.00211426
36.4482,0.00210409
36.4582,0.002094
36.4682,0.00208398
36.4782,0.00207404
36.4882,0.00206416
36.4982,0.00205436
36.5082,0.00204462
36.5182,0.00203495
36.5282,0.00202536
36.5382,0.00201583
36.5482,0.00200636
36.5582,0.00199697
36.5682,0.00198764
36.5782,0.00197837
36.5882,0.00196917
36.5982,0.00196003
36.6082,0.00195096
36.6182,0.00194195
36.6282,0.001933
36.6382,0.00192411
36.6482,0.00191528
36.6582,0.00190652
36.6682,0.00189781
36.6782,0.00188917
36.6882,0.00188058
36.6982,0.00187205
36.7082,0.00186358
36.7182,0.00185517
36.7282,0.00184681
36.7382,0.00183851
36.7482,0.00183027
36.7582,0.00182208
36.7682,0.00181394
36.7782,0.00180586
36.7882,0.00179784
36.7982,0.00178986
36.8082,0.00178194
36.8182,0.00177408
36.8282,0.00176626
36.8382,0.0017585
36.8482,0.00175078
36.8582,0.00174312
36.8682,0.00173551
36.8782,0.00172795
36.8882,0.00172043
36.8982,0.00171297
36.9082,0.00170555
36.9182,0.00169818
36.9282,0.00169086
36.9382,0.00168359
36.9482,0.00167637
36.9582,0.00166919
36.9682,0.00166205
36.9782,0.00165496
36.9882,0.00164792
36.9982,0.00164092
37.0082,0.00163397
37.0182,0.00162706
37.0282,0.00162019
37.0382,0.00161337
37.0482,0.00160659
37.0582,0.00159985
37.0682,0.00159316
37.0782,0.00158651
37.0882,0.0015799
37.0982,0.00157333
37.1082,0.0015668
37.1182,0.00156031
37.1282,0.00155386
37.1382,0.00154745
37.1482,0.00154108
37.1582,0.00153475
37.1682,0.00152846
37.1782,0.00152221
37.1882,0.001516
37.1982,0.00150982
37.2082,0.00150368
37.2182,0.00149758
37.2282,0.00149152
37.2382,0.00148549
37.2482,0.0014795
37.2582,0.00147354
37.2682,0.00146763
37.2782,0.00146174
37.2882,0.00145589
37.2982,0.00145008
37.3082,0.0014443
37.3182,0.00143856
37.3282,0.00143285
37.3382,0.00142718
37.3482,0.00142153
37.3582,0.00141592
37.3682,0.00141035
37.3782,0.00140481
37.3882,0.0013993
37.3982,0.00139382
37.4082,0.00138837
37.4182,0.00138296
37.4282,0.00137758
37.4382,0.00137223
37.4482,0.00136691
37.4582,0.00136162
37.4682,0.00135636
37.4782,0.00135113
37.4882,0.00134593
37.4982,0.00134077
37.5082,0.00133563
37.5182,0.00133052
37.5282,0.00132544
37.5382,0.00132039
37.5482,0.00131537
37.5582,0.00131038
37.5682,0.00130541
37.5782,0.00130047
37.5882,0.00129557
37.5982,0.00129069
37.6082,0.00128583
37.6182,0.00128101
37.6282,0.00127621
37.6382,0.00127144
37.6482,0.00126669
37.6582,0.00126197
37.6682,0.00125728
37.6782,0.00125261
37.6882,0.00124797
37.6982,0.00124336
37.7082,0.00123877
37.7182,0.00123421
37.7282,0.00122967
37.7382,0.00122515
37.7482,0.00122066
37.7582,0.0012162
37.7682,0.00121176
37.7782,0.00120734
37.7882,0.00120295
37.7982,0.00119859
37.8082,0.00119424
37.8182,0.00118992
37.8282,0.00118563
37.8382,0.00118135
37.8482,0.0011771
37.8582,0.00117287
37.8682,0.00116867
37.8782,0.00116449
37.8882,0.00116033
37.8982,0.00115619
37.9082,0.00115207
37.9182,0.00114798
37.9282,0.00114391
37.9382,0.00113986
37.9482,0.00113583
37.9582,0.00113182
37.9682,0.00112783
37.9782,0.00112387
37.9882,0.00111992
37.9982,0.001116
38.0082,0.0011121
38.0182,0.00110822
38.0282,0.00110435
38.0382,0.00110051
38.0482,0.00109669
38.0582,0.00109289
38.0682,0.0010891
38.0782,0.00108534
38.0882,0.0010816
38.0982,0.00107787
38.1082,0.00107417
38.1182,0.00107048
38.1282,0.00106681
38.1382,0.00106317
38.1482,0.00105954
38.1582,0.00105593
38.1682,0.00105233
38.1782,0.00104876
38.1882,0.0010452
38.1982,0.00104166
38.2082,0.00103814
38.2182,0.00103464
38.2282,0.00103116
38.2382,0.00102769
38.2482,0.00102424
38.2582,0.00102081
38.2682,0.00101739
38.2782,0.00101399
38.2882,0.00101061
38.2982,0.00100725
38.3082,0.0010039
38.3182,0.00100057
38.3282,0.000997258
38.3382,0.00099396
38.3482,0.000990679
38.3582,0.000987413
38.3682,0.000984164
38.3782,0.000980931
38.3882,0.000977714
38.3982,0.000974513
38.4082,0.000971327
38.4182,0.000968157
38.4282,0.000965002
38.4382,0.000961863