File: chaaben_2006/xrd/curve_1_fit.dat
32.4225,1.88274e-92
32.4725,2.40776e-88
32.5225,2.50772e-84
32.5725,2.12709e-80
32.6225,1.46938e-76
32.6725,8.2666e-73
32.7225,3.78757e-69
32.7725,1.4133e-65
32.8225,4.2949e-62
32.8725,1.06295e-58
32.9225,2.14247e-55
32.9725,3.51688e-52
33.0225,4.70158e-49
33.0725,5.11884e-46
33.1225,4.5388e-43
33.1725,3.27758e-40
33.2225,1.92756e-37
33.2725,9.23216e-35
33.3225,3.60115e-32
33.3725,1.14399e-29
33.4225,2.95967e-27
33.4725,6.23603e-25
33.5225,1.07008e-22
33.5725,1.49542e-20
33.6225,1.70197e-18
33.6725,1.57756e-16
33.7225,1.19086e-14
33.7725,7.32111e-13
33.8225,3.66552e-11
33.8725,1.49464e-09
33.9225,4.96339e-08
33.9725,1.34234e-06
34.0225,2.95659e-05
34.0725,0.000530346
34.1225,0.00774766
34.1725,0.0921772
34.2225,0.893138
34.2725,7.04783
34.3225,45.2934
34.3725,237.059
34.4225,1010.46
34.4725,3507.72
34.5225,9916.81
34.5725,22832.9
34.6225,42814.7
34.6725,65383.3
34.7225,81317.2
34.7725,82364.5
34.8225,67942.3
34.8725,45643.8
34.9225,24972.7
34.9725,11127.3
35.0225,4037.94
35.0725,1193.35
35.1225,287.225
35.1725,56.301
35.2225,8.98777
35.2725,1.1685
35.3225,0.123723
35.3725,0.0106687
35.4225,0.000749234
35.4725,4.28513e-05
35.5225,1.99596e-06
35.5725,7.57152e-08
35.6225,2.33914e-09
35.6725,5.88533e-11
35.7225,1.20594e-12
35.7725,2.01245e-14
35.8225,2.73506e-16
35.8725,3.02726e-18
35.9225,2.72882e-20
35.9725,2.00328e-22
36.0225,1.19771e-24
36.0725,5.83179e-27
36.1225,2.31257e-29
36.1725,7.46845e-32
36.2225,1.9643e-34
36.2725,4.20753e-37
36.3225,7.33988e-40
36.3725,1.04278e-42
36.4225,1.20653e-45
36.4725,1.13691e-48
36.5225,8.72479e-52
36.5725,5.45289e-55
36.6225,2.7755e-58
36.6725,1.15053e-61
36.7225,3.88414e-65
36.7725,1.06791e-68
36.8225,2.3912e-72
36.8725,4.36054e-76
36.9225,6.476e-80
36.9725,7.83276e-84
37.0225,7.71552e-88
37.0725,6.18952e-92
37.1225,4.04382e-96
37.1725,2.15163e-100
37.2225,9.32366e-105
37.2725,3.29039e-109
37.3225,9.45692e-114
37.3725,2.21357e-118
37.4225,4.21969e-123
37.4725,6.55103e-128
37.5225,8.28286e-133
37.5725,8.5289e-138
37.6225,7.15234e-143
37.6725,4.88478e-148
37.7225,2.71696e-153
37.7725,1.23074e-158
37.8225,4.54034e-164
37.8725,1.36412e-169
37.9225,3.3378e-175
37.9725,6.65135e-181
38.0225,1.07945e-186
38.0725,1.42671e-192
38.1225,1.53571e-198
38.1725,1.34626e-204
38.2225,9.61141e-211
38.2725,5.58842e-217
38.3225,2.64626e-223
38.3725,1.02051e-229
38.4225,3.20513e-236
38.4725,8.19815e-243
38.5225,1.70776e-249
38.5725,2.89722e-256
38.6225,4.00293e-263
38.6725,4.50418e-270
38.7225,4.12758e-277
38.7725,3.08048e-284
38.8225,1.87233e-291
38.8725,9.26806e-299
38.9225,3.73626e-306
38.9725,1.22667e-313
39.0225,0.0
39.0725,0.0
39.1225,0.0
39.1725,0.0
39.2225,0.0
39.2725,0.0
39.3225,0.0
39.3725,0.0
39.4225,0.0
39.4725,0.0
39.5225,0.0
39.5725,0.0
39.6225,0.0
39.6725,0.0
39.7225,0.0
39.7725,0.0
39.8225,0.0
39.8725,0.0
39.9225,0.0
39.9725,0.0
40.0225,0.0
40.0725,0.0
40.1225,0.0
40.1725,0.0
40.2225,0.0
40.2725,0.0
40.3225,0.0
40.3725,0.0
40.4225,0.0
40.4725,0.0
40.5225,0.0
40.5725,0.0
40.6225,0.0
40.6725,0.0
40.7225,0.0
40.7725,0.0
40.8225,0.0
40.8725,0.0
40.9225,0.0
40.9725,0.0
41.0225,0.0
41.0725,0.0
41.1225,0.0
41.1725,0.0
41.2225,0.0
41.2725,0.0
41.3225,0.0
41.3725,0.0
41.4225,0.0
41.4725,0.0
41.5225,0.0
41.5725,0.0
41.6225,0.0
41.6725,0.0
41.7225,0.0
41.7725,0.0
41.8225,0.0
41.8725,0.0
41.9225,0.0
41.9725,0.0
42.0225,0.0
42.0725,0.0
42.1225,0.0
42.1725,0.0
42.2225,0.0
42.2725,0.0
42.3225,0.0
42.3725,0.0
42.4225,0.0
42.4725,0.0
42.5225,0.0
42.5725,0.0
42.6225,0.0
42.6725,0.0
42.7225,0.0
42.7725,0.0
42.8225,0.0
42.8725,0.0
42.9225,0.0
42.9725,0.0
43.0225,0.0
43.0725,0.0
43.1225,0.0
43.1725,0.0
43.2225,0.0
43.2725,0.0
43.3225,0.0
43.3725,0.0
43.4225,0.0
43.4725,0.0
43.5225,0.0
43.5725,0.0
43.6225,0.0
43.6725,0.0
43.7225,0.0
43.7725,0.0
43.8225,0.0
43.8725,0.0
43.9225,0.0
43.9725,0.0
44.0225,0.0
44.0725,0.0
44.1225,0.0
44.1725,0.0
44.2225,0.0
44.2725,0.0
44.3225,0.0
44.3725,0.0
44.4225,0.0
44.4725,0.0
44.5225,0.0
44.5725,0.0
44.6225,0.0
44.6725,0.0
44.7225,0.0
44.7725,0.0
44.8225,0.0
44.8725,0.0
44.9225,0.0
44.9725,0.0
45.0225,0.0
45.0725,0.0
45.1225,0.0
45.1725,0.0
45.2225,0.0
45.2725,0.0
45.3225,0.0
45.3725,0.0
45.4225,0.0
45.4725,0.0
45.5225,0.0
45.5725,0.0
45.6225,0.0
45.6725,0.0
45.7225,0.0
45.7725,0.0
45.8225,0.0
45.8725,0.0
45.9225,0.0
45.9725,0.0
46.0225,0.0
46.0725,0.0
46.1225,0.0
46.1725,0.0
46.2225,0.0
46.2725,0.0
46.3225,0.0
46.3725,0.0
46.4225,0.0
46.4725,0.0
46.5225,0.0
46.5725,0.0
46.6225,0.0
46.6725,0.0
46.7225,0.0
46.7725,0.0
46.8225,0.0
46.8725,0.0
46.9225,0.0
46.9725,0.0
47.0225,0.0
47.0725,0.0
47.1225,0.0
47.1725,0.0
47.2225,0.0
47.2725,0.0
47.3225,0.0
47.3725,0.0
47.4225,0.0
47.4725,0.0
47.5225,0.0
47.5725,0.0
47.6225,0.0
47.6725,0.0
47.7225,0.0
47.7725,0.0
47.8225,0.0
47.8725,0.0
47.9225,0.0
47.9725,0.0
48.0225,0.0
48.0725,0.0
48.1225,0.0
48.1725,0.0
48.2225,0.0
48.2725,0.0
48.3225,0.0
48.3725,0.0
48.4225,0.0
48.4725,0.0
48.5225,0.0
48.5725,0.0
48.6225,0.0
48.6725,0.0
48.7225,0.0
48.7725,0.0
48.8225,0.0
48.8725,0.0
48.9225,0.0
48.9725,0.0
49.0225,0.0
49.0725,0.0
49.1225,0.0
49.1725,0.0
49.2225,0.0
49.2725,0.0
49.3225,0.0
49.3725,0.0
49.4225,0.0
49.4725,0.0
49.5225,0.0
49.5725,0.0
49.6225,0.0
49.6725,0.0
49.7225,0.0
49.7725,0.0
49.8225,0.0
49.8725,0.0
49.9225,0.0
49.9725,0.0
50.0225,0.0
50.0725,0.0
50.1225,0.0
50.1725,0.0
50.2225,0.0
50.2725,0.0
50.3225,0.0
50.3725,0.0
50.4225,0.0
50.4725,0.0
50.5225,0.0
50.5725,0.0
50.6225,0.0
50.6725,0.0
50.7225,0.0
50.7725,0.0
50.8225,0.0
50.8725,0.0
50.9225,0.0
50.9725,0.0
51.0225,0.0
51.0725,0.0
51.1225,0.0
51.1725,0.0
51.2225,0.0
51.2725,0.0
51.3225,0.0
51.3725,0.0
51.4225,0.0
51.4725,0.0
51.5225,0.0
51.5725,0.0
51.6225,0.0
51.6725,0.0
51.7225,0.0
51.7725,0.0
51.8225,0.0
51.8725,0.0
51.9225,0.0
51.9725,0.0
52.0225,0.0
52.0725,0.0
52.1225,0.0
52.1725,0.0
52.2225,0.0
52.2725,0.0
52.3225,0.0
52.3725,0.0
52.4225,0.0
52.4725,0.0
52.5225,0.0
52.5725,0.0
52.6225,0.0
52.6725,0.0
52.7225,0.0
52.7725,0.0
52.8225,0.0
52.8725,0.0
52.9225,0.0
52.9725,0.0
53.0225,0.0
53.0725,0.0
53.1225,0.0
53.1725,0.0
53.2225,0.0
53.2725,0.0
53.3225,0.0
53.3725,0.0
53.4225,0.0
53.4725,0.0
53.5225,0.0
53.5725,0.0
53.6225,0.0
53.6725,0.0
53.7225,0.0
53.7725,0.0
53.8225,0.0
53.8725,0.0
53.9225,0.0
53.9725,0.0
54.0225,0.0
54.0725,0.0
54.1225,0.0
54.1725,0.0
54.2225,0.0
54.2725,0.0
54.3225,0.0
54.3725,0.0
54.4225,0.0
54.4725,0.0
54.5225,0.0
54.5725,0.0
54.6225,0.0
54.6725,0.0
54.7225,0.0
54.7725,0.0
54.8225,0.0
54.8725,0.0
54.9225,0.0
54.9725,0.0
55.0225,0.0
55.0725,0.0
55.1225,0.0
55.1725,0.0
55.2225,0.0
55.2725,0.0
55.3225,0.0
55.3725,0.0
55.4225,0.0
55.4725,0.0
55.5225,0.0
55.5725,0.0
55.6225,0.0
55.6725,0.0
55.7225,0.0
55.7725,0.0
55.8225,0.0
55.8725,0.0
55.9225,0.0
55.9725,0.0
56.0225,0.0
56.0725,0.0
56.1225,0.0
56.1725,0.0
56.2225,0.0
56.2725,0.0
56.3225,0.0
56.3725,0.0
56.4225,0.0
56.4725,0.0
56.5225,0.0
56.5725,0.0
56.6225,0.0
56.6725,0.0
56.7225,0.0
56.7725,0.0
56.8225,0.0
56.8725,0.0
56.9225,0.0
56.9725,0.0
57.0225,0.0
57.0725,0.0
57.1225,0.0
57.1725,0.0
57.2225,0.0
57.2725,0.0
57.3225,0.0
57.3725,0.0
57.4225,0.0
57.4725,0.0
57.5225,0.0
57.5725,0.0
57.6225,0.0
57.6725,0.0
57.7225,0.0
57.7725,0.0
57.8225,0.0
57.8725,0.0
57.9225,0.0
57.9725,0.0
58.0225,0.0
58.0725,0.0
58.1225,0.0
58.1725,0.0
58.2225,0.0
58.2725,0.0
58.3225,0.0
58.3725,0.0
58.4225,0.0
58.4725,0.0
58.5225,0.0
58.5725,0.0
58.6225,0.0
58.6725,0.0
58.7225,0.0
58.7725,0.0
58.8225,0.0
58.8725,0.0
58.9225,0.0
58.9725,0.0
59.0225,0.0
59.0725,0.0
59.1225,0.0
59.1725,0.0
59.2225,0.0
59.2725,0.0
59.3225,0.0
59.3725,0.0
59.4225,0.0
59.4725,0.0
59.5225,0.0
59.5725,0.0
59.6225,0.0
59.6725,0.0
59.7225,0.0
59.7725,0.0
59.8225,0.0
59.8725,0.0
59.9225,0.0
59.9725,0.0
60.0225,0.0
60.0725,0.0
60.1225,0.0
60.1725,0.0
60.2225,0.0
60.2725,0.0
60.3225,0.0
60.3725,0.0
60.4225,0.0
60.4725,0.0
60.5225,0.0
60.5725,0.0
60.6225,0.0
60.6725,0.0
60.7225,0.0
60.7725,0.0
60.8225,0.0
60.8725,0.0
60.9225,0.0
60.9725,0.0
61.0225,0.0
61.0725,0.0
61.1225,0.0
61.1725,0.0
61.2225,0.0
61.2725,0.0
61.3225,0.0
61.3725,0.0
61.4225,0.0
61.4725,0.0
61.5225,0.0
61.5725,0.0
61.6225,0.0
61.6725,0.0
61.7225,0.0
61.7725,0.0
61.8225,0.0
61.8725,0.0
61.9225,0.0
61.9725,0.0
62.0225,0.0
62.0725,0.0
62.1225,0.0
62.1725,0.0
62.2225,0.0
62.2725,0.0
62.3225,0.0
62.3725,0.0
62.4225,0.0
62.4725,0.0
62.5225,0.0
62.5725,0.0
62.6225,0.0
62.6725,0.0
62.7225,0.0
62.7725,0.0
62.8225,0.0
62.8725,0.0
62.9225,0.0
62.9725,0.0
63.0225,0.0
63.0725,0.0
63.1225,0.0
63.1725,0.0
63.2225,0.0
63.2725,0.0
63.3225,0.0
63.3725,0.0
63.4225,0.0
63.4725,0.0
63.5225,0.0
63.5725,0.0
63.6225,0.0
63.6725,0.0
63.7225,0.0
63.7725,0.0
63.8225,0.0
63.8725,0.0
63.9225,0.0
63.9725,0.0
64.0225,0.0
64.0725,0.0
64.1225,0.0
64.1725,0.0
64.2225,0.0
64.2725,0.0
64.3225,0.0
64.3725,0.0
64.4225,0.0
64.4725,0.0
64.5225,0.0
64.5725,0.0
64.6225,0.0
64.6725,0.0
64.7225,0.0
64.7725,0.0
64.8225,0.0
64.8725,0.0
64.9225,0.0
64.9725,0.0
65.0225,0.0
65.0725,0.0
65.1225,0.0
65.1725,0.0
65.2225,0.0
65.2725,0.0
65.3225,0.0
65.3725,0.0
65.4225,0.0
65.4725,0.0
65.5225,0.0
65.5725,0.0
65.6225,0.0
65.6725,0.0
65.7225,0.0
65.7725,0.0
65.8225,0.0
65.8725,0.0
65.9225,0.0
65.9725,0.0
66.0225,0.0
66.0725,0.0
66.1225,0.0
66.1725,0.0
66.2225,0.0
66.2725,0.0
66.3225,0.0
66.3725,0.0
66.4225,0.0
66.4725,0.0
66.5225,0.0
66.5725,0.0
66.6225,0.0
66.6725,0.0
66.7225,0.0
66.7725,0.0
66.8225,0.0
66.8725,0.0
66.9225,0.0
66.9725,0.0
67.0225,0.0
67.0725,0.0
67.1225,0.0
67.1725,0.0
67.2225,0.0
67.2725,0.0
67.3225,0.0
67.3725,0.0
67.4225,0.0
67.4725,0.0
67.5225,0.0
67.5725,0.0
67.6225,0.0
67.6725,0.0
67.7225,0.0
67.7725,0.0
67.8225,0.0
67.8725,0.0
67.9225,0.0
67.9725,0.0
68.0225,0.0
68.0725,0.0
68.1225,0.0
68.1725,0.0
68.2225,0.0
68.2725,0.0
68.3225,0.0
68.3725,0.0
68.4225,0.0
68.4725,0.0
68.5225,0.0
68.5725,0.0
68.6225,0.0
68.6725,0.0
68.7225,0.0
68.7725,0.0
68.8225,0.0
68.8725,0.0
68.9225,0.0
68.9725,0.0
69.0225,0.0
69.0725,0.0
69.1225,0.0
69.1725,0.0
69.2225,0.0
69.2725,0.0
69.3225,0.0
69.3725,0.0
69.4225,0.0
69.4725,0.0
69.5225,0.0
69.5725,0.0
69.6225,0.0
69.6725,0.0
69.7225,0.0
69.7725,0.0
69.8225,0.0
69.8725,0.0
69.9225,0.0
69.9725,0.0
70.0225,0.0
70.0725,0.0
70.1225,0.0
70.1725,0.0
70.2225,0.0
70.2725,0.0
70.3225,0.0
70.3725,0.0
70.4225,0.0
70.4725,0.0
70.5225,0.0
70.5725,0.0
70.6225,0.0
70.6725,0.0
70.7225,0.0
70.7725,0.0
70.8225,0.0
70.8725,0.0
70.9225,0.0
70.9725,0.0
71.0225,0.0
71.0725,0.0
71.1225,0.0
71.1725,0.0
71.2225,0.0
71.2725,0.0
71.3225,0.0
71.3725,0.0
71.4225,0.0
71.4725,0.0
71.5225,0.0
71.5725,0.0
71.6225,0.0
71.6725,0.0
71.7225,0.0
71.7725,0.0
71.8225,0.0
71.8725,0.0
71.9225,0.0
71.9725,0.0
72.0225,0.0
72.0725,0.0
72.1225,0.0
72.1725,0.0
72.2225,0.0
72.2725,0.0
72.3225,0.0
72.3725,0.0
72.4225,0.0
72.4725,0.0
72.5225,0.0
72.5725,0.0
72.6225,0.0
72.6725,0.0
72.7225,0.0
72.7725,0.0
72.8225,0.0
72.8725,0.0
72.9225,0.0
72.9725,0.0
73.0225,0.0
73.0725,0.0
73.1225,0.0
73.1725,0.0
73.2225,0.0
73.2725,0.0
73.3225,0.0
73.3725,0.0
73.4225,0.0
73.4725,0.0
73.5225,0.0
73.5725,0.0
73.6225,0.0
73.6725,0.0
73.7225,0.0
73.7725,0.0
73.8225,0.0
73.8725,0.0
73.9225,0.0
73.9725,0.0
74.0225,0.0
74.0725,0.0
74.1225,0.0
74.1725,0.0
74.2225,0.0
74.2725,0.0
74.3225,0.0
74.3725,0.0
74.4225,0.0
74.4725,0.0
74.5225,0.0
74.5725,0.0
74.6225,0.0
74.6725,0.0
74.7225,0.0
74.7725,0.0
74.8225,0.0
74.8725,0.0
74.9225,0.0
74.9725,0.0
75.0225,0.0
75.0725,0.0
75.1225,0.0
75.1725,0.0
75.2225,0.0
75.2725,0.0
75.3225,0.0
75.3725,0.0
75.4225,0.0
75.4725,0.0
75.5225,0.0
75.5725,0.0
75.6225,0.0
75.6725,0.0
75.7225,0.0
75.7725,0.0