File: chaaben_2006/xrd/curve_2_fit.dat
32.4225,0.0
32.4725,0.0
32.5225,0.0
32.5725,0.0
32.6225,0.0
32.6725,0.0
32.7225,0.0
32.7725,0.0
32.8225,0.0
32.8725,0.0
32.9225,0.0
32.9725,0.0
33.0225,0.0
33.0725,0.0
33.1225,0.0
33.1725,0.0
33.2225,0.0
33.2725,0.0
33.3225,0.0
33.3725,0.0
33.4225,0.0
33.4725,0.0
33.5225,0.0
33.5725,0.0
33.6225,0.0
33.6725,0.0
33.7225,0.0
33.7725,0.0
33.8225,0.0
33.8725,0.0
33.9225,0.0
33.9725,0.0
34.0225,0.0
34.0725,0.0
34.1225,0.0
34.1725,0.0
34.2225,0.0
34.2725,0.0
34.3225,0.0
34.3725,0.0
34.4225,0.0
34.4725,0.0
34.5225,0.0
34.5725,0.0
34.6225,0.0
34.6725,0.0
34.7225,0.0
34.7725,0.0
34.8225,0.0
34.8725,0.0
34.9225,0.0
34.9725,0.0
35.0225,0.0
35.0725,0.0
35.1225,0.0
35.1725,0.0
35.2225,0.0
35.2725,0.0
35.3225,0.0
35.3725,0.0
35.4225,0.0
35.4725,0.0
35.5225,0.0
35.5725,0.0
35.6225,0.0
35.6725,0.0
35.7225,0.0
35.7725,0.0
35.8225,0.0
35.8725,0.0
35.9225,0.0
35.9725,0.0
36.0225,0.0
36.0725,0.0
36.1225,0.0
36.1725,0.0
36.2225,0.0
36.2725,0.0
36.3225,0.0
36.3725,0.0
36.4225,0.0
36.4725,0.0
36.5225,0.0
36.5725,0.0
36.6225,0.0
36.6725,0.0
36.7225,0.0
36.7725,0.0
36.8225,0.0
36.8725,0.0
36.9225,0.0
36.9725,0.0
37.0225,0.0
37.0725,0.0
37.1225,0.0
37.1725,0.0
37.2225,0.0
37.2725,0.0
37.3225,0.0
37.3725,0.0
37.4225,0.0
37.4725,0.0
37.5225,0.0
37.5725,0.0
37.6225,0.0
37.6725,0.0
37.7225,0.0
37.7725,0.0
37.8225,0.0
37.8725,0.0
37.9225,0.0
37.9725,0.0
38.0225,0.0
38.0725,0.0
38.1225,0.0
38.1725,0.0
38.2225,0.0
38.2725,0.0
38.3225,0.0
38.3725,0.0
38.4225,0.0
38.4725,0.0
38.5225,0.0
38.5725,0.0
38.6225,0.0
38.6725,0.0
38.7225,0.0
38.7725,0.0
38.8225,0.0
38.8725,0.0
38.9225,0.0
38.9725,0.0
39.0225,0.0
39.0725,0.0
39.1225,0.0
39.1725,0.0
39.2225,0.0
39.2725,0.0
39.3225,0.0
39.3725,0.0
39.4225,0.0
39.4725,0.0
39.5225,0.0
39.5725,0.0
39.6225,0.0
39.6725,0.0
39.7225,0.0
39.7725,0.0
39.8225,0.0
39.8725,0.0
39.9225,0.0
39.9725,0.0
40.0225,0.0
40.0725,0.0
40.1225,0.0
40.1725,0.0
40.2225,0.0
40.2725,0.0
40.3225,0.0
40.3725,0.0
40.4225,0.0
40.4725,0.0
40.5225,0.0
40.5725,0.0
40.6225,0.0
40.6725,0.0
40.7225,0.0
40.7725,0.0
40.8225,0.0
40.8725,0.0
40.9225,0.0
40.9725,0.0
41.0225,0.0
41.0725,0.0
41.1225,0.0
41.1725,0.0
41.2225,0.0
41.2725,0.0
41.3225,0.0
41.3725,0.0
41.4225,0.0
41.4725,0.0
41.5225,0.0
41.5725,0.0
41.6225,0.0
41.6725,0.0
41.7225,0.0
41.7725,0.0
41.8225,0.0
41.8725,0.0
41.9225,0.0
41.9725,0.0
42.0225,0.0
42.0725,0.0
42.1225,0.0
42.1725,0.0
42.2225,0.0
42.2725,0.0
42.3225,0.0
42.3725,0.0
42.4225,0.0
42.4725,0.0
42.5225,0.0
42.5725,0.0
42.6225,0.0
42.6725,0.0
42.7225,0.0
42.7725,0.0
42.8225,0.0
42.8725,0.0
42.9225,0.0
42.9725,0.0
43.0225,0.0
43.0725,0.0
43.1225,0.0
43.1725,0.0
43.2225,0.0
43.2725,0.0
43.3225,0.0
43.3725,0.0
43.4225,0.0
43.4725,0.0
43.5225,0.0
43.5725,0.0
43.6225,0.0
43.6725,0.0
43.7225,0.0
43.7725,0.0
43.8225,0.0
43.8725,0.0
43.9225,0.0
43.9725,0.0
44.0225,0.0
44.0725,0.0
44.1225,0.0
44.1725,0.0
44.2225,0.0
44.2725,0.0
44.3225,0.0
44.3725,0.0
44.4225,0.0
44.4725,0.0
44.5225,0.0
44.5725,0.0
44.6225,0.0
44.6725,0.0
44.7225,0.0
44.7725,0.0
44.8225,0.0
44.8725,0.0
44.9225,0.0
44.9725,0.0
45.0225,0.0
45.0725,0.0
45.1225,0.0
45.1725,0.0
45.2225,0.0
45.2725,0.0
45.3225,0.0
45.3725,0.0
45.4225,0.0
45.4725,0.0
45.5225,0.0
45.5725,0.0
45.6225,0.0
45.6725,0.0
45.7225,0.0
45.7725,0.0
45.8225,0.0
45.8725,0.0
45.9225,0.0
45.9725,0.0
46.0225,0.0
46.0725,0.0
46.1225,0.0
46.1725,0.0
46.2225,0.0
46.2725,0.0
46.3225,0.0
46.3725,0.0
46.4225,0.0
46.4725,0.0
46.5225,0.0
46.5725,0.0
46.6225,0.0
46.6725,0.0
46.7225,0.0
46.7725,0.0
46.8225,0.0
46.8725,0.0
46.9225,0.0
46.9725,0.0
47.0225,0.0
47.0725,0.0
47.1225,0.0
47.1725,0.0
47.2225,0.0
47.2725,0.0
47.3225,0.0
47.3725,0.0
47.4225,0.0
47.4725,0.0
47.5225,0.0
47.5725,0.0
47.6225,0.0
47.6725,0.0
47.7225,0.0
47.7725,0.0
47.8225,0.0
47.8725,0.0
47.9225,0.0
47.9725,0.0
48.0225,0.0
48.0725,0.0
48.1225,0.0
48.1725,0.0
48.2225,0.0
48.2725,0.0
48.3225,0.0
48.3725,0.0
48.4225,0.0
48.4725,0.0
48.5225,0.0
48.5725,0.0
48.6225,0.0
48.6725,0.0
48.7225,0.0
48.7725,0.0
48.8225,0.0
48.8725,0.0
48.9225,0.0
48.9725,0.0
49.0225,0.0
49.0725,0.0
49.1225,0.0
49.1725,0.0
49.2225,0.0
49.2725,0.0
49.3225,0.0
49.3725,0.0
49.4225,0.0
49.4725,0.0
49.5225,0.0
49.5725,0.0
49.6225,0.0
49.6725,0.0
49.7225,0.0
49.7725,0.0
49.8225,0.0
49.8725,0.0
49.9225,0.0
49.9725,0.0
50.0225,0.0
50.0725,0.0
50.1225,0.0
50.1725,0.0
50.2225,0.0
50.2725,0.0
50.3225,0.0
50.3725,0.0
50.4225,0.0
50.4725,0.0
50.5225,0.0
50.5725,0.0
50.6225,0.0
50.6725,0.0
50.7225,0.0
50.7725,0.0
50.8225,0.0
50.8725,0.0
50.9225,0.0
50.9725,0.0
51.0225,0.0
51.0725,0.0
51.1225,0.0
51.1725,0.0
51.2225,0.0
51.2725,0.0
51.3225,0.0
51.3725,0.0
51.4225,0.0
51.4725,0.0
51.5225,0.0
51.5725,0.0
51.6225,0.0
51.6725,0.0
51.7225,0.0
51.7725,0.0
51.8225,0.0
51.8725,0.0
51.9225,0.0
51.9725,0.0
52.0225,0.0
52.0725,0.0
52.1225,0.0
52.1725,0.0
52.2225,0.0
52.2725,0.0
52.3225,0.0
52.3725,0.0
52.4225,0.0
52.4725,0.0
52.5225,0.0
52.5725,0.0
52.6225,0.0
52.6725,0.0
52.7225,0.0
52.7725,0.0
52.8225,0.0
52.8725,0.0
52.9225,0.0
52.9725,0.0
53.0225,0.0
53.0725,0.0
53.1225,0.0
53.1725,0.0
53.2225,0.0
53.2725,0.0
53.3225,0.0
53.3725,0.0
53.4225,0.0
53.4725,0.0
53.5225,0.0
53.5725,0.0
53.6225,0.0
53.6725,0.0
53.7225,0.0
53.7725,0.0
53.8225,0.0
53.8725,0.0
53.9225,0.0
53.9725,0.0
54.0225,0.0
54.0725,0.0
54.1225,0.0
54.1725,0.0
54.2225,0.0
54.2725,0.0
54.3225,0.0
54.3725,0.0
54.4225,0.0
54.4725,0.0
54.5225,0.0
54.5725,0.0
54.6225,0.0
54.6725,0.0
54.7225,0.0
54.7725,0.0
54.8225,0.0
54.8725,0.0
54.9225,0.0
54.9725,0.0
55.0225,0.0
55.0725,0.0
55.1225,0.0
55.1725,0.0
55.2225,0.0
55.2725,0.0
55.3225,0.0
55.3725,0.0
55.4225,0.0
55.4725,0.0
55.5225,0.0
55.5725,0.0
55.6225,0.0
55.6725,0.0
55.7225,0.0
55.7725,0.0
55.8225,0.0
55.8725,0.0
55.9225,0.0
55.9725,0.0
56.0225,0.0
56.0725,0.0
56.1225,0.0
56.1725,0.0
56.2225,0.0
56.2725,0.0
56.3225,0.0
56.3725,0.0
56.4225,0.0
56.4725,0.0
56.5225,0.0
56.5725,0.0
56.6225,0.0
56.6725,0.0
56.7225,0.0
56.7725,0.0
56.8225,0.0
56.8725,0.0
56.9225,0.0
56.9725,0.0
57.0225,0.0
57.0725,0.0
57.1225,0.0
57.1725,0.0
57.2225,0.0
57.2725,0.0
57.3225,0.0
57.3725,0.0
57.4225,0.0
57.4725,0.0
57.5225,0.0
57.5725,0.0
57.6225,0.0
57.6725,0.0
57.7225,0.0
57.7725,0.0
57.8225,0.0
57.8725,0.0
57.9225,0.0
57.9725,0.0
58.0225,0.0
58.0725,0.0
58.1225,0.0
58.1725,0.0
58.2225,0.0
58.2725,0.0
58.3225,0.0
58.3725,0.0
58.4225,0.0
58.4725,0.0
58.5225,0.0
58.5725,0.0
58.6225,0.0
58.6725,0.0
58.7225,0.0
58.7725,0.0
58.8225,0.0
58.8725,0.0
58.9225,0.0
58.9725,0.0
59.0225,0.0
59.0725,0.0
59.1225,0.0
59.1725,0.0
59.2225,0.0
59.2725,0.0
59.3225,0.0
59.3725,0.0
59.4225,0.0
59.4725,0.0
59.5225,0.0
59.5725,0.0
59.6225,0.0
59.6725,0.0
59.7225,0.0
59.7725,0.0
59.8225,0.0
59.8725,0.0
59.9225,0.0
59.9725,0.0
60.0225,0.0
60.0725,0.0
60.1225,0.0
60.1725,0.0
60.2225,0.0
60.2725,0.0
60.3225,0.0
60.3725,0.0
60.4225,0.0
60.4725,0.0
60.5225,0.0
60.5725,0.0
60.6225,0.0
60.6725,0.0
60.7225,0.0
60.7725,0.0
60.8225,0.0
60.8725,0.0
60.9225,0.0
60.9725,0.0
61.0225,0.0
61.0725,0.0
61.1225,0.0
61.1725,0.0
61.2225,0.0
61.2725,0.0
61.3225,0.0
61.3725,0.0
61.4225,0.0
61.4725,0.0
61.5225,0.0
61.5725,0.0
61.6225,0.0
61.6725,0.0
61.7225,0.0
61.7725,0.0
61.8225,0.0
61.8725,0.0
61.9225,0.0
61.9725,0.0
62.0225,0.0
62.0725,0.0
62.1225,0.0
62.1725,0.0
62.2225,0.0
62.2725,0.0
62.3225,0.0
62.3725,0.0
62.4225,0.0
62.4725,0.0
62.5225,0.0
62.5725,0.0
62.6225,0.0
62.6725,0.0
62.7225,0.0
62.7725,0.0
62.8225,0.0
62.8725,0.0
62.9225,0.0
62.9725,0.0
63.0225,0.0
63.0725,0.0
63.1225,0.0
63.1725,0.0
63.2225,0.0
63.2725,0.0
63.3225,0.0
63.3725,0.0
63.4225,0.0
63.4725,0.0
63.5225,0.0
63.5725,0.0
63.6225,0.0
63.6725,0.0
63.7225,0.0
63.7725,0.0
63.8225,0.0
63.8725,0.0
63.9225,0.0
63.9725,0.0
64.0225,0.0
64.0725,0.0
64.1225,0.0
64.1725,0.0
64.2225,0.0
64.2725,0.0
64.3225,0.0
64.3725,0.0
64.4225,0.0
64.4725,0.0
64.5225,0.0
64.5725,0.0
64.6225,0.0
64.6725,0.0
64.7225,0.0
64.7725,0.0
64.8225,0.0
64.8725,0.0
64.9225,0.0
64.9725,0.0
65.0225,0.0
65.0725,0.0
65.1225,0.0
65.1725,0.0
65.2225,0.0
65.2725,0.0
65.3225,0.0
65.3725,0.0
65.4225,0.0
65.4725,0.0
65.5225,0.0
65.5725,0.0
65.6225,0.0
65.6725,0.0
65.7225,0.0
65.7725,0.0
65.8225,0.0
65.8725,0.0
65.9225,0.0
65.9725,0.0
66.0225,0.0
66.0725,0.0
66.1225,0.0
66.1725,0.0
66.2225,0.0
66.2725,0.0
66.3225,0.0
66.3725,0.0
66.4225,0.0
66.4725,0.0
66.5225,0.0
66.5725,0.0
66.6225,0.0
66.6725,0.0
66.7225,0.0
66.7725,0.0
66.8225,0.0
66.8725,0.0
66.9225,0.0
66.9725,0.0
67.0225,0.0
67.0725,0.0
67.1225,0.0
67.1725,0.0
67.2225,0.0
67.2725,0.0
67.3225,0.0
67.3725,0.0
67.4225,0.0
67.4725,0.0
67.5225,0.0
67.5725,0.0
67.6225,0.0
67.6725,0.0
67.7225,0.0
67.7725,0.0
67.8225,0.0
67.8725,0.0
67.9225,0.0
67.9725,0.0
68.0225,0.0
68.0725,0.0
68.1225,0.0
68.1725,0.0
68.2225,0.0
68.2725,0.0
68.3225,0.0
68.3725,0.0
68.4225,0.0
68.4725,0.0
68.5225,0.0
68.5725,0.0
68.6225,0.0
68.6725,0.0
68.7225,0.0
68.7725,2.73998e-315
68.8225,5.86442e-308
68.8725,1.03119e-300
68.9225,1.48968e-293
68.9725,1.768e-286
69.0225,1.72389e-279
69.0725,1.38094e-272
69.1225,9.08813e-266
69.1725,4.91374e-259
69.2225,2.18266e-252
69.2725,7.96523e-246
69.3225,2.38807e-239
69.3725,5.8821e-233
69.4225,1.1903e-226
69.4725,1.97886e-220
69.5225,2.70278e-214
69.5725,3.03281e-208
69.6225,2.79586e-202
69.6725,2.1175e-196
69.7225,1.31755e-190
69.7725,6.73517e-185
69.8225,2.82857e-179
69.8725,9.75938e-174
69.9225,2.7664e-168
69.9725,6.44234e-163
70.0225,1.23257e-157
70.0725,1.93737e-152
70.1225,2.50181e-147
70.1725,2.65418e-142
70.2225,2.31337e-137
70.2725,1.65652e-132
70.3225,9.74506e-128
70.3725,4.70988e-123
70.4225,1.87013e-118
70.4725,6.10058e-114
70.5225,1.63496e-109
70.5725,3.59981e-105
70.6225,6.51163e-101
70.6725,9.67692e-97
70.7225,1.18147e-92
70.7725,1.18506e-88
70.8225,9.76562e-85
70.8725,6.61142e-81
70.9225,3.67728e-77
70.9725,1.68033e-73
71.0225,6.30814e-70
71.0725,1.94556e-66
71.1225,4.92974e-63
71.1725,1.02622e-59
71.2225,1.75507e-56
71.2725,2.46595e-53
71.3225,2.84651e-50
71.3725,2.69946e-47
71.4225,2.10319e-44
71.4725,1.34623e-41
71.5225,7.07935e-39
71.5725,3.05848e-36
71.6225,1.08556e-33
71.6725,3.1655e-31
71.7225,7.58343e-29
71.7725,1.49254e-26
71.8225,2.41337e-24
71.8725,3.20596e-22
71.9225,3.49888e-20
71.9725,3.13717e-18
72.0225,2.31091e-16
72.0725,1.39851e-14
72.1225,6.9532e-13
72.1725,2.84015e-11
72.2225,9.5309e-10
72.2725,2.62763e-08
72.3225,5.95157e-07
72.3725,1.10748e-05
72.4225,0.000169308
72.4725,0.00212645
72.5225,0.0219417
72.5725,0.186004
72.6225,1.29542
72.6725,7.41204
72.7225,34.8418
72.7725,134.555
72.8225,426.911
72.8725,1112.79
72.9225,2382.99
72.9725,4192.47
73.0225,6059.76
73.0725,7195.77
73.1225,7019.98
73.1725,5626.42
73.2225,3704.8
73.2725,2004.17
73.3225,890.72
73.3725,325.226
73.4225,97.5586
73.4725,24.0427
73.5225,4.86786
73.5725,0.80971
73.6225,0.110652
73.6725,0.0124229
73.7225,0.00114585
73.7725,8.68292e-05
73.8225,5.40558e-06
73.8725,2.76475e-07
73.9225,1.16173e-08
73.9725,4.01046e-10
74.0225,1.13741e-11
74.0725,2.65021e-13
74.1225,5.07315e-15
74.1725,7.97835e-17
74.2225,1.03083e-18
74.2725,1.0942e-20
74.3225,9.54204e-23
74.3725,6.83635e-25
74.4225,4.02388e-27
74.4725,1.94582e-29
74.5225,7.7303e-32
74.5725,2.52306e-34
74.6225,6.76543e-37
74.6725,1.49039e-39
74.7225,2.69738e-42
74.7725,4.01071e-45
74.8225,4.89934e-48
74.8725,4.91689e-51
74.9225,4.05397e-54
74.9725,2.74605e-57
75.0225,1.52817e-60
75.0725,6.98671e-64
75.1225,2.62428e-67
75.1725,8.09814e-71
75.2225,2.05304e-74
75.2725,4.27608e-78
75.3225,7.31698e-82
75.3725,1.02862e-85
75.4225,1.18799e-89
75.4725,1.12723e-93
75.5225,8.78709e-98
75.5725,5.6275e-102
75.6225,2.9609e-106
75.6725,1.27988e-110
75.7225,4.54517e-115
75.7725,1.32608e-119