File: chaaben_2006/xrd/curve_total_fit.dat
32.4225,0.5
32.4725,0.5
32.5225,0.5
32.5725,0.5
32.6225,0.5
32.6725,0.5
32.7225,0.5
32.7725,0.5
32.8225,0.5
32.8725,0.5
32.9225,0.5
32.9725,0.5
33.0225,0.5
33.0725,0.5
33.1225,0.5
33.1725,0.5
33.2225,0.5
33.2725,0.5
33.3225,0.5
33.3725,0.5
33.4225,0.5
33.4725,0.5
33.5225,0.5
33.5725,0.5
33.6225,0.5
33.6725,0.5
33.7225,0.5
33.7725,0.5
33.8225,0.5
33.8725,0.5
33.9225,0.5
33.9725,0.500001
34.0225,0.50003
34.0725,0.50053
34.1225,0.507748
34.1725,0.592177
34.2225,1.39314
34.2725,7.54783
34.3225,45.7934
34.3725,237.559
34.4225,1010.96
34.4725,3508.22
34.5225,9917.31
34.5725,22833.4
34.6225,42815.2
34.6725,65383.8
34.7225,81317.7
34.7725,82365
34.8225,67942.8
34.8725,45644.3
34.9225,24973.2
34.9725,11127.8
35.0225,4038.44
35.0725,1193.85
35.1225,287.725
35.1725,56.801
35.2225,9.48777
35.2725,1.6685
35.3225,0.623723
35.3725,0.510669
35.4225,0.500749
35.4725,0.500043
35.5225,0.500002
35.5725,0.5
35.6225,0.5
35.6725,0.5
35.7225,0.5
35.7725,0.5
35.8225,0.5
35.8725,0.5
35.9225,0.5
35.9725,0.5
36.0225,0.5
36.0725,0.5
36.1225,0.5
36.1725,0.5
36.2225,0.5
36.2725,0.5
36.3225,0.5
36.3725,0.5
36.4225,0.5
36.4725,0.5
36.5225,0.5
36.5725,0.5
36.6225,0.5
36.6725,0.5
36.7225,0.5
36.7725,0.5
36.8225,0.5
36.8725,0.5
36.9225,0.5
36.9725,0.5
37.0225,0.5
37.0725,0.5
37.1225,0.5
37.1725,0.5
37.2225,0.5
37.2725,0.5
37.3225,0.5
37.3725,0.5
37.4225,0.5
37.4725,0.5
37.5225,0.5
37.5725,0.5
37.6225,0.5
37.6725,0.5
37.7225,0.5
37.7725,0.5
37.8225,0.5
37.8725,0.5
37.9225,0.5
37.9725,0.5
38.0225,0.5
38.0725,0.5
38.1225,0.5
38.1725,0.5
38.2225,0.5
38.2725,0.5
38.3225,0.5
38.3725,0.5
38.4225,0.5
38.4725,0.5
38.5225,0.5
38.5725,0.5
38.6225,0.5
38.6725,0.5
38.7225,0.5
38.7725,0.5
38.8225,0.5
38.8725,0.5
38.9225,0.5
38.9725,0.5
39.0225,0.5
39.0725,0.5
39.1225,0.5
39.1725,0.5
39.2225,0.5
39.2725,0.5
39.3225,0.5
39.3725,0.5
39.4225,0.5
39.4725,0.5
39.5225,0.5
39.5725,0.5
39.6225,0.5
39.6725,0.5
39.7225,0.5
39.7725,0.5
39.8225,0.5
39.8725,0.5
39.9225,0.5
39.9725,0.5
40.0225,0.5
40.0725,0.5
40.1225,0.5
40.1725,0.5
40.2225,0.5
40.2725,0.5
40.3225,0.5
40.3725,0.5
40.4225,0.5
40.4725,0.5
40.5225,0.5
40.5725,0.5
40.6225,0.5
40.6725,0.5
40.7225,0.5
40.7725,0.5
40.8225,0.5
40.8725,0.5
40.9225,0.5
40.9725,0.5
41.0225,0.5
41.0725,0.5
41.1225,0.5
41.1725,0.5
41.2225,0.5
41.2725,0.5
41.3225,0.5
41.3725,0.5
41.4225,0.5
41.4725,0.5
41.5225,0.5
41.5725,0.5
41.6225,0.5
41.6725,0.5
41.7225,0.5
41.7725,0.5
41.8225,0.5
41.8725,0.5
41.9225,0.5
41.9725,0.5
42.0225,0.5
42.0725,0.5
42.1225,0.5
42.1725,0.5
42.2225,0.5
42.2725,0.5
42.3225,0.5
42.3725,0.5
42.4225,0.5
42.4725,0.5
42.5225,0.5
42.5725,0.5
42.6225,0.5
42.6725,0.5
42.7225,0.5
42.7725,0.5
42.8225,0.5
42.8725,0.5
42.9225,0.5
42.9725,0.5
43.0225,0.5
43.0725,0.5
43.1225,0.5
43.1725,0.5
43.2225,0.5
43.2725,0.5
43.3225,0.5
43.3725,0.5
43.4225,0.5
43.4725,0.5
43.5225,0.5
43.5725,0.5
43.6225,0.5
43.6725,0.5
43.7225,0.5
43.7725,0.5
43.8225,0.5
43.8725,0.5
43.9225,0.5
43.9725,0.5
44.0225,0.5
44.0725,0.5
44.1225,0.5
44.1725,0.5
44.2225,0.5
44.2725,0.5
44.3225,0.5
44.3725,0.5
44.4225,0.5
44.4725,0.5
44.5225,0.5
44.5725,0.5
44.6225,0.5
44.6725,0.5
44.7225,0.5
44.7725,0.5
44.8225,0.5
44.8725,0.5
44.9225,0.5
44.9725,0.5
45.0225,0.5
45.0725,0.5
45.1225,0.5
45.1725,0.5
45.2225,0.5
45.2725,0.5
45.3225,0.5
45.3725,0.5
45.4225,0.5
45.4725,0.5
45.5225,0.5
45.5725,0.5
45.6225,0.5
45.6725,0.5
45.7225,0.5
45.7725,0.5
45.8225,0.5
45.8725,0.5
45.9225,0.5
45.9725,0.5
46.0225,0.5
46.0725,0.5
46.1225,0.5
46.1725,0.5
46.2225,0.5
46.2725,0.5
46.3225,0.5
46.3725,0.5
46.4225,0.5
46.4725,0.5
46.5225,0.5
46.5725,0.5
46.6225,0.5
46.6725,0.5
46.7225,0.5
46.7725,0.5
46.8225,0.5
46.8725,0.5
46.9225,0.5
46.9725,0.5
47.0225,0.5
47.0725,0.5
47.1225,0.5
47.1725,0.5
47.2225,0.5
47.2725,0.5
47.3225,0.5
47.3725,0.5
47.4225,0.5
47.4725,0.5
47.5225,0.5
47.5725,0.5
47.6225,0.5
47.6725,0.5
47.7225,0.5
47.7725,0.5
47.8225,0.5
47.8725,0.5
47.9225,0.5
47.9725,0.5
48.0225,0.5
48.0725,0.5
48.1225,0.5
48.1725,0.5
48.2225,0.5
48.2725,0.5
48.3225,0.5
48.3725,0.5
48.4225,0.5
48.4725,0.5
48.5225,0.5
48.5725,0.5
48.6225,0.5
48.6725,0.5
48.7225,0.5
48.7725,0.5
48.8225,0.5
48.8725,0.5
48.9225,0.5
48.9725,0.5
49.0225,0.5
49.0725,0.5
49.1225,0.5
49.1725,0.5
49.2225,0.5
49.2725,0.5
49.3225,0.5
49.3725,0.5
49.4225,0.5
49.4725,0.5
49.5225,0.5
49.5725,0.5
49.6225,0.5
49.6725,0.5
49.7225,0.5
49.7725,0.5
49.8225,0.5
49.8725,0.5
49.9225,0.5
49.9725,0.5
50.0225,0.5
50.0725,0.5
50.1225,0.5
50.1725,0.5
50.2225,0.5
50.2725,0.5
50.3225,0.5
50.3725,0.5
50.4225,0.5
50.4725,0.5
50.5225,0.5
50.5725,0.5
50.6225,0.5
50.6725,0.5
50.7225,0.5
50.7725,0.5
50.8225,0.5
50.8725,0.5
50.9225,0.5
50.9725,0.5
51.0225,0.5
51.0725,0.5
51.1225,0.5
51.1725,0.5
51.2225,0.5
51.2725,0.5
51.3225,0.5
51.3725,0.5
51.4225,0.5
51.4725,0.5
51.5225,0.5
51.5725,0.5
51.6225,0.5
51.6725,0.5
51.7225,0.5
51.7725,0.5
51.8225,0.5
51.8725,0.5
51.9225,0.5
51.9725,0.5
52.0225,0.5
52.0725,0.5
52.1225,0.5
52.1725,0.5
52.2225,0.5
52.2725,0.5
52.3225,0.5
52.3725,0.5
52.4225,0.5
52.4725,0.5
52.5225,0.5
52.5725,0.5
52.6225,0.5
52.6725,0.5
52.7225,0.5
52.7725,0.5
52.8225,0.5
52.8725,0.5
52.9225,0.5
52.9725,0.5
53.0225,0.5
53.0725,0.5
53.1225,0.5
53.1725,0.5
53.2225,0.5
53.2725,0.5
53.3225,0.5
53.3725,0.5
53.4225,0.5
53.4725,0.5
53.5225,0.5
53.5725,0.5
53.6225,0.5
53.6725,0.5
53.7225,0.5
53.7725,0.5
53.8225,0.5
53.8725,0.5
53.9225,0.5
53.9725,0.5
54.0225,0.5
54.0725,0.5
54.1225,0.5
54.1725,0.5
54.2225,0.5
54.2725,0.5
54.3225,0.5
54.3725,0.5
54.4225,0.5
54.4725,0.5
54.5225,0.5
54.5725,0.5
54.6225,0.5
54.6725,0.5
54.7225,0.5
54.7725,0.5
54.8225,0.5
54.8725,0.5
54.9225,0.5
54.9725,0.5
55.0225,0.5
55.0725,0.5
55.1225,0.5
55.1725,0.5
55.2225,0.5
55.2725,0.5
55.3225,0.5
55.3725,0.5
55.4225,0.5
55.4725,0.5
55.5225,0.5
55.5725,0.5
55.6225,0.5
55.6725,0.5
55.7225,0.5
55.7725,0.5
55.8225,0.5
55.8725,0.5
55.9225,0.5
55.9725,0.5
56.0225,0.5
56.0725,0.5
56.1225,0.5
56.1725,0.5
56.2225,0.5
56.2725,0.5
56.3225,0.5
56.3725,0.5
56.4225,0.5
56.4725,0.5
56.5225,0.5
56.5725,0.5
56.6225,0.5
56.6725,0.5
56.7225,0.5
56.7725,0.5
56.8225,0.5
56.8725,0.5
56.9225,0.5
56.9725,0.5
57.0225,0.5
57.0725,0.5
57.1225,0.5
57.1725,0.5
57.2225,0.5
57.2725,0.5
57.3225,0.5
57.3725,0.5
57.4225,0.5
57.4725,0.5
57.5225,0.5
57.5725,0.5
57.6225,0.5
57.6725,0.5
57.7225,0.5
57.7725,0.5
57.8225,0.5
57.8725,0.5
57.9225,0.5
57.9725,0.5
58.0225,0.5
58.0725,0.5
58.1225,0.5
58.1725,0.5
58.2225,0.5
58.2725,0.5
58.3225,0.5
58.3725,0.5
58.4225,0.5
58.4725,0.5
58.5225,0.5
58.5725,0.5
58.6225,0.5
58.6725,0.5
58.7225,0.5
58.7725,0.5
58.8225,0.5
58.8725,0.5
58.9225,0.5
58.9725,0.5
59.0225,0.5
59.0725,0.5
59.1225,0.5
59.1725,0.5
59.2225,0.5
59.2725,0.5
59.3225,0.5
59.3725,0.5
59.4225,0.5
59.4725,0.5
59.5225,0.5
59.5725,0.5
59.6225,0.5
59.6725,0.5
59.7225,0.5
59.7725,0.5
59.8225,0.5
59.8725,0.5
59.9225,0.5
59.9725,0.5
60.0225,0.5
60.0725,0.5
60.1225,0.5
60.1725,0.5
60.2225,0.5
60.2725,0.5
60.3225,0.5
60.3725,0.5
60.4225,0.5
60.4725,0.5
60.5225,0.5
60.5725,0.5
60.6225,0.5
60.6725,0.5
60.7225,0.5
60.7725,0.5
60.8225,0.5
60.8725,0.5
60.9225,0.5
60.9725,0.5
61.0225,0.5
61.0725,0.5
61.1225,0.5
61.1725,0.5
61.2225,0.5
61.2725,0.5
61.3225,0.5
61.3725,0.5
61.4225,0.5
61.4725,0.5
61.5225,0.5
61.5725,0.5
61.6225,0.5
61.6725,0.5
61.7225,0.5
61.7725,0.5
61.8225,0.5
61.8725,0.5
61.9225,0.5
61.9725,0.5
62.0225,0.5
62.0725,0.5
62.1225,0.5
62.1725,0.5
62.2225,0.5
62.2725,0.5
62.3225,0.5
62.3725,0.5
62.4225,0.5
62.4725,0.5
62.5225,0.5
62.5725,0.5
62.6225,0.5
62.6725,0.5
62.7225,0.5
62.7725,0.5
62.8225,0.5
62.8725,0.5
62.9225,0.5
62.9725,0.5
63.0225,0.5
63.0725,0.5
63.1225,0.5
63.1725,0.5
63.2225,0.5
63.2725,0.5
63.3225,0.5
63.3725,0.5
63.4225,0.5
63.4725,0.5
63.5225,0.5
63.5725,0.5
63.6225,0.5
63.6725,0.5
63.7225,0.5
63.7725,0.5
63.8225,0.5
63.8725,0.5
63.9225,0.5
63.9725,0.5
64.0225,0.5
64.0725,0.5
64.1225,0.5
64.1725,0.5
64.2225,0.5
64.2725,0.5
64.3225,0.5
64.3725,0.5
64.4225,0.5
64.4725,0.5
64.5225,0.5
64.5725,0.5
64.6225,0.5
64.6725,0.5
64.7225,0.5
64.7725,0.5
64.8225,0.5
64.8725,0.5
64.9225,0.5
64.9725,0.5
65.0225,0.5
65.0725,0.5
65.1225,0.5
65.1725,0.5
65.2225,0.5
65.2725,0.5
65.3225,0.5
65.3725,0.5
65.4225,0.5
65.4725,0.5
65.5225,0.5
65.5725,0.5
65.6225,0.5
65.6725,0.5
65.7225,0.5
65.7725,0.5
65.8225,0.5
65.8725,0.5
65.9225,0.5
65.9725,0.5
66.0225,0.5
66.0725,0.5
66.1225,0.5
66.1725,0.5
66.2225,0.5
66.2725,0.5
66.3225,0.5
66.3725,0.5
66.4225,0.5
66.4725,0.5
66.5225,0.5
66.5725,0.5
66.6225,0.5
66.6725,0.5
66.7225,0.5
66.7725,0.5
66.8225,0.5
66.8725,0.5
66.9225,0.5
66.9725,0.5
67.0225,0.5
67.0725,0.5
67.1225,0.5
67.1725,0.5
67.2225,0.5
67.2725,0.5
67.3225,0.5
67.3725,0.5
67.4225,0.5
67.4725,0.5
67.5225,0.5
67.5725,0.5
67.6225,0.5
67.6725,0.5
67.7225,0.5
67.7725,0.5
67.8225,0.5
67.8725,0.5
67.9225,0.5
67.9725,0.5
68.0225,0.5
68.0725,0.5
68.1225,0.5
68.1725,0.5
68.2225,0.5
68.2725,0.5
68.3225,0.5
68.3725,0.5
68.4225,0.5
68.4725,0.5
68.5225,0.5
68.5725,0.5
68.6225,0.5
68.6725,0.5
68.7225,0.5
68.7725,0.5
68.8225,0.5
68.8725,0.5
68.9225,0.5
68.9725,0.5
69.0225,0.5
69.0725,0.5
69.1225,0.5
69.1725,0.5
69.2225,0.5
69.2725,0.5
69.3225,0.5
69.3725,0.5
69.4225,0.5
69.4725,0.5
69.5225,0.5
69.5725,0.5
69.6225,0.5
69.6725,0.5
69.7225,0.5
69.7725,0.5
69.8225,0.5
69.8725,0.5
69.9225,0.5
69.9725,0.5
70.0225,0.5
70.0725,0.5
70.1225,0.5
70.1725,0.5
70.2225,0.5
70.2725,0.5
70.3225,0.5
70.3725,0.5
70.4225,0.5
70.4725,0.5
70.5225,0.5
70.5725,0.5
70.6225,0.5
70.6725,0.5
70.7225,0.5
70.7725,0.5
70.8225,0.5
70.8725,0.5
70.9225,0.5
70.9725,0.5
71.0225,0.5
71.0725,0.5
71.1225,0.5
71.1725,0.5
71.2225,0.5
71.2725,0.5
71.3225,0.5
71.3725,0.5
71.4225,0.5
71.4725,0.5
71.5225,0.5
71.5725,0.5
71.6225,0.5
71.6725,0.5
71.7225,0.5
71.7725,0.5
71.8225,0.5
71.8725,0.5
71.9225,0.5
71.9725,0.5
72.0225,0.5
72.0725,0.5
72.1225,0.5
72.1725,0.5
72.2225,0.5
72.2725,0.5
72.3225,0.500001
72.3725,0.500011
72.4225,0.500169
72.4725,0.502126
72.5225,0.521942
72.5725,0.686004
72.6225,1.79542
72.6725,7.91204
72.7225,35.3418
72.7725,135.055
72.8225,427.411
72.8725,1113.29
72.9225,2383.49
72.9725,4192.97
73.0225,6060.26
73.0725,7196.27
73.1225,7020.48
73.1725,5626.92
73.2225,3705.3
73.2725,2004.67
73.3225,891.22
73.3725,325.726
73.4225,98.0586
73.4725,24.5427
73.5225,5.36786
73.5725,1.30971
73.6225,0.610652
73.6725,0.512423
73.7225,0.501146
73.7725,0.500087
73.8225,0.500005
73.8725,0.5
73.9225,0.5
73.9725,0.5
74.0225,0.5
74.0725,0.5
74.1225,0.5
74.1725,0.5
74.2225,0.5
74.2725,0.5
74.3225,0.5
74.3725,0.5
74.4225,0.5
74.4725,0.5
74.5225,0.5
74.5725,0.5
74.6225,0.5
74.6725,0.5
74.7225,0.5
74.7725,0.5
74.8225,0.5
74.8725,0.5
74.9225,0.5
74.9725,0.5
75.0225,0.5
75.0725,0.5
75.1225,0.5
75.1725,0.5
75.2225,0.5
75.2725,0.5
75.3225,0.5
75.3725,0.5
75.4225,0.5
75.4725,0.5
75.5225,0.5
75.5725,0.5
75.6225,0.5
75.6725,0.5
75.7225,0.5
75.7725,0.5