File: xiao_2004/xrd/curve_1_fit.dat
29.3029,12.7071
29.3529,12.956
29.4029,13.2122
29.4529,13.4761
29.5029,13.748
29.5529,14.0282
29.6029,14.317
29.6529,14.6149
29.7029,14.9221
29.7529,15.2391
29.8029,15.5663
29.8529,15.9042
29.9029,16.2531
29.9529,16.6137
30.0029,16.9864
30.0529,17.3717
30.1029,17.7703
30.1529,18.1828
30.2029,18.6098
30.2529,19.0519
30.3029,19.51
30.3529,19.9848
30.4029,20.4772
30.4529,20.9879
30.5029,21.5179
30.5529,22.0683
30.6029,22.64
30.6529,23.2342
30.7029,23.852
30.7529,24.4948
30.8029,25.1639
30.8529,25.8607
30.9029,26.5869
30.9529,27.344
31.0029,28.1338
31.0529,28.9583
31.1029,29.8196
31.1529,30.7197
31.2029,31.6612
31.2529,32.6465
31.3029,33.6784
31.3529,34.7599
31.4029,35.8943
31.4529,37.085
31.5029,38.3358
31.5529,39.6508
31.6029,41.0344
31.6529,42.4916
31.7029,44.0276
31.7529,45.6481
31.8029,47.3595
31.8529,49.1687
31.9029,51.0832
31.9529,53.1114
32.0029,55.2624
32.0529,57.5463
32.1029,59.9742
32.1529,62.5584
32.2029,65.3126
32.2529,68.252
32.3029,71.3934
32.3529,74.7558
32.4029,78.3603
32.4529,82.2304
32.5029,86.3929
32.5529,90.8778
32.6029,95.719
32.6529,100.955
32.7029,106.63
32.7529,112.793
32.8029,119.502
32.8529,126.824
32.9029,134.833
32.9529,143.619
33.0029,153.283
33.0529,163.945
33.1029,175.747
33.1529,188.855
33.2029,203.465
33.2529,219.812
33.3029,238.18
33.3529,258.909
33.4029,282.413
33.4529,309.199
33.5029,339.893
33.5529,375.272
33.6029,416.309
33.6529,464.234
33.7029,520.617
33.7529,587.473
33.8029,667.42
33.8529,763.883
33.9029,881.377
33.9529,1025.88
34.0029,1205.34
34.0529,1430.18
34.1029,1713.88
34.1529,2072.86
34.2029,2524.79
34.2529,3082.48
34.3029,3739.04
34.3529,4440.98
34.4029,5060.82
34.4529,5413.87
34.5029,5361.4
34.5529,4925.64
34.6029,4269.61
34.6529,3570.14
34.7029,2935.29
34.7529,2404.1
34.8029,1976.58
34.8529,1637.77
34.9029,1369.98
34.9529,1157.42
35.0029,987.432
35.0529,850.223
35.1029,738.394
35.1529,646.366
35.2029,569.922
35.2529,505.859
35.3029,451.725
35.3529,405.625
35.4029,366.084
35.4529,331.939
35.5029,302.273
35.5529,276.347
35.6029,253.569
35.6529,233.456
35.7029,215.615
35.7529,199.719
35.8029,185.498
35.8529,172.729
35.9029,161.222
35.9529,150.817
36.0029,141.38
36.0529,132.794
36.1029,124.962
36.1529,117.798
36.2029,111.228
36.2529,105.19
36.3029,99.6278
36.3529,94.4928
36.4029,89.7426
36.4529,85.3401
36.5029,81.2522
36.5529,77.4497
36.6029,73.907
36.6529,70.6008
36.7029,67.5107
36.7529,64.6184
36.8029,61.9073
36.8529,59.3628
36.9029,56.9714
36.9529,54.7212
37.0029,52.6014
37.0529,50.602
37.1029,48.7141
37.1529,46.9296
37.2029,45.2412
37.2529,43.642
37.3029,42.126
37.3529,40.6874
37.4029,39.3211
37.4529,38.0223
37.5029,36.7866
37.5529,35.6101
37.6029,34.4891
37.6529,33.42
37.7029,32.3998
37.7529,31.4256
37.8029,30.4945
37.8529,29.6041
37.9029,28.7521
37.9529,27.9363
38.0029,27.1547
38.0529,26.4054
38.1029,25.6866
38.1529,24.9968
38.2029,24.3343
38.2529,23.6977
38.3029,23.0858
38.3529,22.4973
38.4029,21.9309
38.4529,21.3857
38.5029,20.8605
38.5529,20.3544
38.6029,19.8664
38.6529,19.3958
38.7029,18.9417
38.7529,18.5033
38.8029,18.08
38.8529,17.671
38.9029,17.2757
38.9529,16.8935
39.0029,16.5239
39.0529,16.1662
39.1029,15.82
39.1529,15.4849
39.2029,15.1602
39.2529,14.8456
39.3029,14.5407
39.3529,14.2452
39.4029,13.9585
39.4529,13.6804
39.5029,13.4105
39.5529,13.1485
39.6029,12.8941
39.6529,12.647
39.7029,12.4069
39.7529,12.1736
39.8029,11.9468
39.8529,11.7263
39.9029,11.5119
39.9529,11.3032
40.0029,11.1002
40.0529,10.9026
40.1029,10.7103
40.1529,10.5229
40.2029,10.3405
40.2529,10.1627
40.3029,9.98949
40.3529,9.82066
40.4029,9.65607
40.4529,9.49559
40.5029,9.33906
40.5529,9.18638
40.6029,9.03741
40.6529,8.89203
40.7029,8.75013
40.7529,8.61159
40.8029,8.47632
40.8529,8.34421
40.9029,8.21516
40.9529,8.08908
41.0029,7.96588
41.0529,7.84548
41.1029,7.72778
41.1529,7.61271
41.2029,7.50019
41.2529,7.39014
41.3029,7.2825
41.3529,7.17719
41.4029,7.07415
41.4529,6.97331
41.5029,6.87461
41.5529,6.77799
41.6029,6.68339
41.6529,6.59076
41.7029,6.50004
41.7529,6.41117
41.8029,6.32412
41.8529,6.23883
41.9029,6.15525
41.9529,6.07334
42.0029,5.99306
42.0529,5.91435
42.1029,5.83718
42.1529,5.76152
42.2029,5.68731
42.2529,5.61453
42.3029,5.54314
42.3529,5.4731
42.4029,5.40438
42.4529,5.33694
42.5029,5.27076
42.5529,5.2058
42.6029,5.14203
42.6529,5.07943
42.7029,5.01797
42.7529,4.95761
42.8029,4.89833
42.8529,4.84012
42.9029,4.78293
42.9529,4.72675
43.0029,4.67155
43.0529,4.61732
43.1029,4.56402
43.1529,4.51164
43.2029,4.46016
43.2529,4.40955
43.3029,4.3598
43.3529,4.31089
43.4029,4.26279
43.4529,4.2155
43.5029,4.16899
43.5529,4.12324
43.6029,4.07824
43.6529,4.03397
43.7029,3.99043
43.7529,3.94758
43.8029,3.90542
43.8529,3.86393
43.9029,3.82309
43.9529,3.7829
44.0029,3.74335
44.0529,3.7044
44.1029,3.66607
44.1529,3.62832
44.2029,3.59116
44.2529,3.55456
44.3029,3.51852
44.3529,3.48302
44.4029,3.44806
44.4529,3.41362
44.5029,3.3797
44.5529,3.34628
44.6029,3.31335
44.6529,3.28091
44.7029,3.24894
44.7529,3.21743
44.8029,3.18638
44.8529,3.15578
44.9029,3.12562
44.9529,3.09588
45.0029,3.06657
45.0529,3.03767
45.1029,3.00918
45.1529,2.98109
45.2029,2.95339
45.2529,2.92608
45.3029,2.89914
45.3529,2.87257
45.4029,2.84636
45.4529,2.82052
45.5029,2.79502
45.5529,2.76987
45.6029,2.74505
45.6529,2.72057
45.7029,2.69641
45.7529,2.67257
45.8029,2.64905
45.8529,2.62584
45.9029,2.60293
45.9529,2.58031
46.0029,2.558
46.0529,2.53597
46.1029,2.51422
46.1529,2.49275
46.2029,2.47156
46.2529,2.45063
46.3029,2.42997
46.3529,2.40957
46.4029,2.38943
46.4529,2.36954
46.5029,2.34989
46.5529,2.33049
46.6029,2.31132
46.6529,2.2924
46.7029,2.2737
46.7529,2.25523
46.8029,2.23699
46.8529,2.21896
46.9029,2.20116
46.9529,2.18356
47.0029,2.16618
47.0529,2.149
47.1029,2.13203
47.1529,2.11526
47.2029,2.09868
47.2529,2.0823
47.3029,2.06611
47.3529,2.05011
47.4029,2.03429
47.4529,2.01865
47.5029,2.0032
47.5529,1.98792
47.6029,1.97282
47.6529,1.95788
47.7029,1.94312
47.7529,1.92852
47.8029,1.91409
47.8529,1.89981
47.9029,1.8857
47.9529,1.87174
48.0029,1.85794
48.0529,1.84429
48.1029,1.83079
48.1529,1.81744
48.2029,1.80423
48.2529,1.79116
48.3029,1.77824
48.3529,1.76546
48.4029,1.75281
48.4529,1.7403
48.5029,1.72793
48.5529,1.71568
48.6029,1.70356
48.6529,1.69158
48.7029,1.67971
48.7529,1.66798
48.8029,1.65636
48.8529,1.64487
48.9029,1.63349
48.9529,1.62223
49.0029,1.61109
49.0529,1.60007
49.1029,1.58915
49.1529,1.57835
49.2029,1.56766
49.2529,1.55707
49.3029,1.54659
49.3529,1.53622
49.4029,1.52595
49.4529,1.51579
49.5029,1.50572
49.5529,1.49576
49.6029,1.48589
49.6529,1.47612
49.7029,1.46645
49.7529,1.45687
49.8029,1.44739
49.8529,1.43799
49.9029,1.42869
49.9529,1.41948
50.0029,1.41036
50.0529,1.40132
50.1029,1.39238
50.1529,1.38351
50.2029,1.37473
50.2529,1.36604
50.3029,1.35743
50.3529,1.34889
50.4029,1.34044
50.4529,1.33207
50.5029,1.32378
50.5529,1.31556
50.6029,1.30742
50.6529,1.29935
50.7029,1.29136
50.7529,1.28344
50.8029,1.2756
50.8529,1.26783
50.9029,1.26012
50.9529,1.25249
51.0029,1.24493
51.0529,1.23743
51.1029,1.23
51.1529,1.22264
51.2029,1.21535
51.2529,1.20812
51.3029,1.20095
51.3529,1.19385
51.4029,1.18681
51.4529,1.17983
51.5029,1.17292
51.5529,1.16606
51.6029,1.15927
51.6529,1.15253
51.7029,1.14585
51.7529,1.13923
51.8029,1.13267
51.8529,1.12617
51.9029,1.11972
51.9529,1.11332
52.0029,1.10698
52.0529,1.10069
52.1029,1.09446
52.1529,1.08828
52.2029,1.08215
52.2529,1.07608
52.3029,1.07005
52.3529,1.06408
52.4029,1.05815
52.4529,1.05228
52.5029,1.04645
52.5529,1.04067
52.6029,1.03494
52.6529,1.02926
52.7029,1.02362
52.7529,1.01803
52.8029,1.01249
52.8529,1.00699
52.9029,1.00153
52.9529,0.99612
53.0029,0.990753
53.0529,0.985429
53.1029,0.980148
53.1529,0.97491
53.2029,0.969713
53.2529,0.964557
53.3029,0.959443
53.3529,0.954369
53.4029,0.949335
53.4529,0.944341
53.5029,0.939386
53.5529,0.934471
53.6029,0.929593
53.6529,0.924754
53.7029,0.919953
53.7529,0.915188
53.8029,0.910461
53.8529,0.90577
53.9029,0.901115
53.9529,0.896497
54.0029,0.891913
54.0529,0.887365
54.1029,0.882851
54.1529,0.878372
54.2029,0.873926
54.2529,0.869515
54.3029,0.865136
54.3529,0.860791
54.4029,0.856478
54.4529,0.852198
54.5029,0.847949
54.5529,0.843733
54.6029,0.839547
54.6529,0.835393
54.7029,0.83127
54.7529,0.827176
54.8029,0.823114
54.8529,0.819081
54.9029,0.815077
54.9529,0.811103
55.0029,0.807158
55.0529,0.803241
55.1029,0.799353
55.1529,0.795493
55.2029,0.791661
55.2529,0.787857
55.3029,0.78408
55.3529,0.78033
55.4029,0.776607
55.4529,0.77291
55.5029,0.76924
55.5529,0.765596
55.6029,0.761978
55.6529,0.758385
55.7029,0.754818
55.7529,0.751275
55.8029,0.747758
55.8529,0.744265
55.9029,0.740797
55.9529,0.737353
56.0029,0.733933
56.0529,0.730536
56.1029,0.727164
56.1529,0.723814
56.2029,0.720487
56.2529,0.717184
56.3029,0.713903
56.3529,0.710644
56.4029,0.707408
56.4529,0.704194
56.5029,0.701002
56.5529,0.697831
56.6029,0.694682
56.6529,0.691554
56.7029,0.688447
56.7529,0.685361
56.8029,0.682296
56.8529,0.679251
56.9029,0.676227
56.9529,0.673222
57.0029,0.670238
57.0529,0.667274
57.1029,0.664329
57.1529,0.661403
57.2029,0.658497
57.2529,0.65561
57.3029,0.652742
57.3529,0.649893
57.4029,0.647062
57.4529,0.64425
57.5029,0.641456
57.5529,0.63868
57.6029,0.635922
57.6529,0.633182
57.7029,0.63046
57.7529,0.627755
57.8029,0.625068
57.8529,0.622398
57.9029,0.619744
57.9529,0.617108
58.0029,0.614489
58.0529,0.611886
58.1029,0.6093
58.1529,0.60673
58.2029,0.604176
58.2529,0.601638
58.3029,0.599117
58.3529,0.596611
58.4029,0.594121
58.4529,0.591646
58.5029,0.589187
58.5529,0.586743
58.6029,0.584315
58.6529,0.581901
58.7029,0.579502
58.7529,0.577118
58.8029,0.574749
58.8529,0.572394
58.9029,0.570054
58.9529,0.567728
59.0029,0.565416
59.0529,0.563119
59.1029,0.560835
59.1529,0.558565
59.2029,0.556309
59.2529,0.554067
59.3029,0.551838
59.3529,0.549623
59.4029,0.54742
59.4529,0.545232
59.5029,0.543056
59.5529,0.540893
59.6029,0.538743
59.6529,0.536606
59.7029,0.534481
59.7529,0.53237
59.8029,0.53027
59.8529,0.528183
59.9029,0.526109
59.9529,0.524046
60.0029,0.521996
60.0529,0.519957
60.1029,0.517931
60.1529,0.515916
60.2029,0.513913
60.2529,0.511922
60.3029,0.509942
60.3529,0.507974
60.4029,0.506017
60.4529,0.504072
60.5029,0.502137
60.5529,0.500214
60.6029,0.498302
60.6529,0.496401
60.7029,0.49451
60.7529,0.49263
60.8029,0.490762
60.8529,0.488903
60.9029,0.487055
60.9529,0.485218
61.0029,0.483391
61.0529,0.481574
61.1029,0.479768
61.1529,0.477972
61.2029,0.476185
61.2529,0.474409
61.3029,0.472643
61.3529,0.470886
61.4029,0.46914
61.4529,0.467403
61.5029,0.465675
61.5529,0.463957
61.6029,0.462249
61.6529,0.46055
61.7029,0.458861
61.7529,0.45718
61.8029,0.455509
61.8529,0.453847
61.9029,0.452194
61.9529,0.450551
62.0029,0.448916
62.0529,0.44729
62.1029,0.445673
62.1529,0.444064
62.2029,0.442464
62.2529,0.440873
62.3029,0.439291
62.3529,0.437717
62.4029,0.436151
62.4529,0.434594
62.5029,0.433045
62.5529,0.431504
62.6029,0.429972
62.6529,0.428448
62.7029,0.426931
62.7529,0.425423
62.8029,0.423923
62.8529,0.422431
62.9029,0.420946
62.9529,0.41947
63.0029,0.418001
63.0529,0.41654
63.1029,0.415087
63.1529,0.413641
63.2029,0.412202
63.2529,0.410771
63.3029,0.409348
63.3529,0.407932
63.4029,0.406523
63.4529,0.405122
63.5029,0.403728
63.5529,0.402341
63.6029,0.400961
63.6529,0.399588
63.7029,0.398222
63.7529,0.396864
63.8029,0.395512
63.8529,0.394167
63.9029,0.392829
63.9529,0.391498
64.0029,0.390173
64.0529,0.388855
64.1029,0.387544
64.1529,0.38624
64.2029,0.384942
64.2529,0.383651
64.3029,0.382366
64.3529,0.381087
64.4029,0.379815
64.4529,0.378549
64.5029,0.37729
64.5529,0.376037
64.6029,0.37479
64.6529,0.373549
64.7029,0.372315
64.7529,0.371086
64.8029,0.369864
64.8529,0.368648
64.9029,0.367437
64.9529,0.366233
65.0029,0.365034
65.0529,0.363842
65.1029,0.362655
65.1529,0.361474
65.2029,0.360299
65.2529,0.359129
65.3029,0.357966
65.3529,0.356807
65.4029,0.355655
65.4529,0.354508
65.5029,0.353367
65.5529,0.352231
65.6029,0.3511
65.6529,0.349975
65.7029,0.348855
65.7529,0.347741
65.8029,0.346632
65.8529,0.345529
65.9029,0.34443
65.9529,0.343337
66.0029,0.342249
66.0529,0.341166
66.1029,0.340089
66.1529,0.339016
66.2029,0.337949
66.2529,0.336886
66.3029,0.335829
66.3529,0.334776
66.4029,0.333729
66.4529,0.332686
66.5029,0.331648
66.5529,0.330615
66.6029,0.329587
66.6529,0.328564
66.7029,0.327545
66.7529,0.326532
66.8029,0.325523
66.8529,0.324518
66.9029,0.323518
66.9529,0.322523
67.0029,0.321532
67.0529,0.320546
67.1029,0.319565
67.1529,0.318588
67.2029,0.317615
67.2529,0.316647
67.3029,0.315684
67.3529,0.314724
67.4029,0.313769
67.4529,0.312819
67.5029,0.311872
67.5529,0.310931
67.6029,0.309993
67.6529,0.309059
67.7029,0.30813
67.7529,0.307205
67.8029,0.306284
67.8529,0.305367
67.9029,0.304455
67.9529,0.303546
68.0029,0.302641
68.0529,0.301741
68.1029,0.300844
68.1529,0.299952
68.2029,0.299063
68.2529,0.298179
68.3029,0.297298
68.3529,0.296421
68.4029,0.295548
68.4529,0.294679
68.5029,0.293814
68.5529,0.292953
68.6029,0.292095
68.6529,0.291241
68.7029,0.290391
68.7529,0.289545
68.8029,0.288702
68.8529,0.287863
68.9029,0.287027
68.9529,0.286196
69.0029,0.285367
69.0529,0.284543
69.1029,0.283722
69.1529,0.282904
69.2029,0.282091
69.2529,0.28128
69.3029,0.280473
69.3529,0.27967
69.4029,0.27887
69.4529,0.278073
69.5029,0.27728
69.5529,0.27649
69.6029,0.275704
69.6529,0.274921
69.7029,0.274141
69.7529,0.273364
69.8029,0.272591
69.8529,0.271821
69.9029,0.271055
69.9529,0.270292
70.0029,0.269531
70.0529,0.268774
70.1029,0.268021
70.1529,0.26727
70.2029,0.266523
70.2529,0.265778
70.3029,0.265037
70.3529,0.264299
70.4029,0.263564
70.4529,0.262832
70.5029,0.262103
70.5529,0.261377
70.6029,0.260654
70.6529,0.259934
70.7029,0.259218
70.7529,0.258504
70.8029,0.257793
70.8529,0.257085
70.9029,0.256379
70.9529,0.255677
71.0029,0.254978
71.0529,0.254281
71.1029,0.253588
71.1529,0.252897
71.2029,0.252209
71.2529,0.251524
71.3029,0.250841
71.3529,0.250161
71.4029,0.249485
71.4529,0.24881
71.5029,0.248139
71.5529,0.24747
71.6029,0.246804
71.6529,0.246141
71.7029,0.24548
71.7529,0.244822
71.8029,0.244167
71.8529,0.243514
71.9029,0.242864
71.9529,0.242217
72.0029,0.241572
72.0529,0.240929
72.1029,0.24029
72.1529,0.239652
72.2029,0.239018
72.2529,0.238386
72.3029,0.237756
72.3529,0.237129
72.4029,0.236504
72.4529,0.235882
72.5029,0.235262
72.5529,0.234645
72.6029,0.23403
72.6529,0.233417
72.7029,0.232807
72.7529,0.232199
72.8029,0.231594
72.8529,0.230991
72.9029,0.23039
72.9529,0.229792
73.0029,0.229196
73.0529,0.228602
73.1029,0.228011
73.1529,0.227422
73.2029,0.226835
73.2529,0.226251
73.3029,0.225668
73.3529,0.225088
73.4029,0.224511
73.4529,0.223935
73.5029,0.223362
73.5529,0.222791
73.6029,0.222222
73.6529,0.221655
73.7029,0.22109
73.7529,0.220528
73.8029,0.219967
73.8529,0.219409
73.9029,0.218853
73.9529,0.218299
74.0029,0.217747
74.0529,0.217198
74.1029,0.21665
74.1529,0.216104
74.2029,0.215561
74.2529,0.215019
74.3029,0.21448
74.3529,0.213942
74.4029,0.213407
74.4529,0.212874
74.5029,0.212342
74.5529,0.211813
74.6029,0.211285
74.6529,0.21076
74.7029,0.210236
74.7529,0.209715
74.8029,0.209195
74.8529,0.208677
74.9029,0.208162