File: xiao_2004/xrd/curve_total_fit.dat
29.3029,141.995
29.3529,143.558
29.4029,145.188
29.4529,146.892
29.5029,148.674
29.5529,150.538
29.6029,152.491
29.6529,154.539
29.7029,156.687
29.7529,158.945
29.8029,161.319
29.8529,163.818
29.9029,166.451
29.9529,169.231
30.0029,172.167
30.0529,175.273
30.1029,178.564
30.1529,182.054
30.2029,185.763
30.2529,189.709
30.3029,193.914
30.3529,198.404
30.4029,203.206
30.4529,208.351
30.5029,213.876
30.5529,219.82
30.6029,226.23
30.6529,233.158
30.7029,240.666
30.7529,248.822
30.8029,257.707
30.8529,267.416
30.9029,278.059
30.9529,289.763
31.0029,302.682
31.0529,316.996
31.1029,332.92
31.1529,350.714
31.2029,370.692
31.2529,393.235
31.3029,418.812
31.3529,448.006
31.4029,481.54
31.4529,520.33
31.5029,565.539
31.5529,618.666
31.6029,681.66
31.6529,757.088
31.7029,848.373
31.7529,960.133
31.8029,1098.68
31.8529,1272.74
31.9029,1494.44
31.9529,1780.72
32.0029,2154.84
32.0529,2647.51
32.1029,3294.6
32.1529,4124.36
32.2029,5118.91
32.2529,6139.31
32.3029,6871.05
32.3529,6965.62
32.4029,6372.19
32.4529,5396.12
32.5029,4384.65
32.5529,3518.7
32.6029,2837.81
32.6529,2320.13
32.7029,1929.84
32.7529,1634.62
32.8029,1409.47
32.8529,1236.15
32.9029,1101.56
32.9529,996.361
33.0029,913.831
33.0529,849.121
33.1029,798.702
33.1529,759.997
33.2029,731.131
33.2529,710.749
33.3029,697.907
33.3529,691.984
33.4029,692.635
33.4529,699.765
33.5029,713.512
33.5529,734.261
33.6029,762.667
33.6529,799.697
33.7029,846.704
33.7529,905.527
33.8029,978.634
33.8529,1069.33
33.9029,1182.02
33.9529,1322.62
34.0029,1498.97
34.0529,1721.47
34.1029,2003.53
34.1529,2361.55
34.2029,2813.16
34.2529,3371.15
34.3029,4028.62
34.3529,4732.06
34.4029,5353.99
34.4529,5709.74
34.5029,5660.58
34.5529,5228.74
34.6029,4577.27
34.6529,3883.03
34.7029,3254.1
34.7529,2729.58
34.8029,2309.51
34.8529,1979
34.9029,1720.4
34.9529,1518.03
35.0029,1359.28
35.0529,1234.49
35.1029,1136.36
35.1529,1059.45
35.2029,999.699
35.2529,954.088
35.3029,920.372
35.3529,896.904
35.4029,882.496
35.4529,876.324
35.5029,877.869
35.5529,886.865
35.6029,903.283
35.6529,927.313
35.7029,959.371
35.7529,1000.11
35.8029,1050.46
35.8529,1111.64
35.9029,1185.26
35.9529,1273.4
36.0029,1378.68
36.0529,1504.47
36.1029,1655.05
36.1529,1835.86
36.2029,2053.84
36.2529,2317.78
36.3029,2638.69
36.3529,3030.13
36.4029,3508.09
36.4529,4089.89
36.5029,4790.95
36.5529,5617.24
36.6029,6551.2
36.6529,7530.88
36.7029,8431.53
36.7529,9074.58
36.8029,9290.35
36.8529,9012.92
36.9029,8324.27
36.9529,7399.93
37.0029,6414.29
37.0529,5484.43
37.1029,4665.97
37.1529,3972.72
37.2029,3396.99
37.2529,2922.84
37.3029,2532.93
37.3529,2211.47
37.4029,1945.17
37.4529,1723.21
37.5029,1536.97
37.5529,1379.64
37.6029,1245.81
37.6529,1131.22
37.7029,1032.49
37.7529,946.899
37.8029,872.285
37.8529,806.886
37.9029,749.275
37.9529,698.282
38.0029,652.945
38.0529,612.468
38.1029,576.186
38.1529,543.544
38.2029,514.073
38.2529,487.379
38.3029,463.122
38.3529,441.017
38.4029,420.817
38.4529,402.307
38.5029,385.306
38.5529,369.652
38.6029,355.206
38.6529,341.848
38.7029,329.469
38.7529,317.976
38.8029,307.285
38.8529,297.324
38.9029,288.026
38.9529,279.333
39.0029,271.195
39.0529,263.563
39.1029,256.397
39.1529,249.659
39.2029,243.314
39.2529,237.334
39.3029,231.689
39.3529,226.356
39.4029,221.31
39.4529,216.532
39.5029,212.003
39.5529,207.706
39.6029,203.624
39.6529,199.743
39.7029,196.051
39.7529,192.535
39.8029,189.183
39.8529,185.986
39.9029,182.934
39.9529,180.018
40.0029,177.23
40.0529,174.563
40.1029,172.009
40.1529,169.563
40.2029,167.218
40.2529,164.968
40.3029,162.808
40.3529,160.734
40.4029,158.741
40.4529,156.825
40.5029,154.981
40.5529,153.207
40.6029,151.498
40.6529,149.851
40.7029,148.263
40.7529,146.732
40.8029,145.255
40.8529,143.829
40.9029,142.452
40.9529,141.121
41.0029,139.835
41.0529,138.591
41.1029,137.388
41.1529,136.224
41.2029,135.096
41.2529,134.005
41.3029,132.947
41.3529,131.922
41.4029,130.928
41.4529,129.964
41.5029,129.029
41.5529,128.121
41.6029,127.24
41.6529,126.385
41.7029,125.554
41.7529,124.746
41.8029,123.961
41.8529,123.198
41.9029,122.456
41.9529,121.734
42.0029,121.031
42.0529,120.347
42.1029,119.682
42.1529,119.033
42.2029,118.402
42.2529,117.787
42.3029,117.187
42.3529,116.603
42.4029,116.033
42.4529,115.477
42.5029,114.935
42.5529,114.406
42.6029,113.89
42.6529,113.386
42.7029,112.895
42.7529,112.414
42.8029,111.945
42.8529,111.487
42.9029,111.04
42.9529,110.602
43.0029,110.175
43.0529,109.757
43.1029,109.348
43.1529,108.948
43.2029,108.557
43.2529,108.175
43.3029,107.801
43.3529,107.435
43.4029,107.076
43.4529,106.725
43.5029,106.382
43.5529,106.045
43.6029,105.716
43.6529,105.393
43.7029,105.077
43.7529,104.767
43.8029,104.464
43.8529,104.166
43.9029,103.874
43.9529,103.588
44.0029,103.308
44.0529,103.033
44.1029,102.763
44.1529,102.498
44.2029,102.239
44.2529,101.984
44.3029,101.734
44.3529,101.489
44.4029,101.248
44.4529,101.012
44.5029,100.78
44.5529,100.552
44.6029,100.328
44.6529,100.108
44.7029,99.8924
44.7529,99.6803
44.8029,99.4719
44.8529,99.2672
44.9029,99.066
44.9529,98.8683
45.0029,98.6739
45.0529,98.4829
45.1029,98.2951
45.1529,98.1104
45.2029,97.9289
45.2529,97.7503
45.3029,97.5747
45.3529,97.402
45.4029,97.232
45.4529,97.0649
45.5029,96.9004
45.5529,96.7386
45.6029,96.5794
45.6529,96.4227
45.7029,96.2684
45.7529,96.1166
45.8029,95.9671
45.8529,95.82
45.9029,95.6751
45.9529,95.5325
46.0029,95.392
46.0529,95.2537
46.1029,95.1174
46.1529,94.9832
46.2029,94.851
46.2529,94.7208
46.3029,94.5925
46.3529,94.4661
46.4029,94.3415
46.4529,94.2188
46.5029,94.0978
46.5529,93.9786
46.6029,93.861
46.6529,93.7452
46.7029,93.631
46.7529,93.5184
46.8029,93.4074
46.8529,93.298
46.9029,93.1901
46.9529,93.0836
47.0029,92.9787
47.0529,92.8752
47.1029,92.773
47.1529,92.6723
47.2029,92.573
47.2529,92.475
47.3029,92.3783
47.3529,92.2828
47.4029,92.1887
47.4529,92.0958
47.5029,92.0041
47.5529,91.9136
47.6029,91.8243
47.6529,91.7362
47.7029,91.6492
47.7529,91.5633
47.8029,91.4785
47.8529,91.3948
47.9029,91.3122
47.9529,91.2306
48.0029,91.15
48.0529,91.0705
48.1029,90.9919
48.1529,90.9143
48.2029,90.8377
48.2529,90.762
48.3029,90.6872
48.3529,90.6134
48.4029,90.5404
48.4529,90.4683
48.5029,90.3971
48.5529,90.3268
48.6029,90.2573
48.6529,90.1886
48.7029,90.1207
48.7529,90.0537
48.8029,89.9874
48.8529,89.9219
48.9029,89.8572
48.9529,89.7932
49.0029,89.73
49.0529,89.6674
49.1029,89.6056
49.1529,89.5446
49.2029,89.4842
49.2529,89.4245
49.3029,89.3654
49.3529,89.3071
49.4029,89.2493
49.4529,89.1923
49.5029,89.1358
49.5529,89.08
49.6029,89.0248
49.6529,88.9703
49.7029,88.9163
49.7529,88.8629
49.8029,88.81
49.8529,88.7578
49.9029,88.7061
49.9529,88.655
50.0029,88.6044
50.0529,88.5544
50.1029,88.5049
50.1529,88.4559
50.2029,88.4074
50.2529,88.3595
50.3029,88.312
50.3529,88.2651
50.4029,88.2186
50.4529,88.1726
50.5029,88.1271
50.5529,88.082
50.6029,88.0375
50.6529,87.9933
50.7029,87.9497
50.7529,87.9064
50.8029,87.8636
50.8529,87.8213
50.9029,87.7793
50.9529,87.7378
51.0029,87.6967
51.0529,87.656
51.1029,87.6157
51.1529,87.5758
51.2029,87.5363
51.2529,87.4972
51.3029,87.4585
51.3529,87.4201
51.4029,87.3821
51.4529,87.3445
51.5029,87.3073
51.5529,87.2704
51.6029,87.2338
51.6529,87.1976
51.7029,87.1618
51.7529,87.1263
51.8029,87.0911
51.8529,87.0563
51.9029,87.0218
51.9529,86.9876
52.0029,86.9537
52.0529,86.9201
52.1029,86.8869
52.1529,86.854
52.2029,86.8213
52.2529,86.789
52.3029,86.757
52.3529,86.7252
52.4029,86.6938
52.4529,86.6626
52.5029,86.6317
52.5529,86.6011
52.6029,86.5708
52.6529,86.5407
52.7029,86.5109
52.7529,86.4814
52.8029,86.4521
52.8529,86.4231
52.9029,86.3943
52.9529,86.3658
53.0029,86.3376
53.0529,86.3096
53.1029,86.2818
53.1529,86.2543
53.2029,86.227
53.2529,86.2
53.3029,86.1732
53.3529,86.1466
53.4029,86.1203
53.4529,86.0941
53.5029,86.0682
53.5529,86.0426
53.6029,86.0171
53.6529,85.9919
53.7029,85.9668
53.7529,85.942
53.8029,85.9174
53.8529,85.893
53.9029,85.8687
53.9529,85.8447
54.0029,85.8209
54.0529,85.7973
54.1029,85.7739
54.1529,85.7507
54.2029,85.7276
54.2529,85.7048
54.3029,85.6821
54.3529,85.6596
54.4029,85.6373
54.4529,85.6152
54.5029,85.5933
54.5529,85.5715
54.6029,85.5499
54.6529,85.5285
54.7029,85.5073
54.7529,85.4862
54.8029,85.4653
54.8529,85.4445
54.9029,85.424
54.9529,85.4035
55.0029,85.3833
55.0529,85.3632
55.1029,85.3432
55.1529,85.3234
55.2029,85.3038
55.2529,85.2843
55.3029,85.265
55.3529,85.2458
55.4029,85.2268
55.4529,85.2079
55.5029,85.1891
55.5529,85.1705
55.6029,85.152
55.6529,85.1337
55.7029,85.1155
55.7529,85.0975
55.8029,85.0796
55.8529,85.0618
55.9029,85.0441
55.9529,85.0266
56.0029,85.0092
56.0529,84.992
56.1029,84.9749
56.1529,84.9579
56.2029,84.941
56.2529,84.9242
56.3029,84.9076
56.3529,84.8911
56.4029,84.8747
56.4529,84.8584
56.5029,84.8423
56.5529,84.8262
56.6029,84.8103
56.6529,84.7945
56.7029,84.7788
56.7529,84.7633
56.8029,84.7478
56.8529,84.7324
56.9029,84.7172
56.9529,84.702
57.0029,84.687
57.0529,84.6721
57.1029,84.6573
57.1529,84.6426
57.2029,84.6279
57.2529,84.6134
57.3029,84.599
57.3529,84.5847
57.4029,84.5705
57.4529,84.5564
57.5029,84.5424
57.5529,84.5285
57.6029,84.5146
57.6529,84.5009
57.7029,84.4873
57.7529,84.4737
57.8029,84.4603
57.8529,84.4469
57.9029,84.4337
57.9529,84.4205
58.0029,84.4074
58.0529,84.3944
58.1029,84.3815
58.1529,84.3687
58.2029,84.3559
58.2529,84.3433
58.3029,84.3307
58.3529,84.3182
58.4029,84.3058
58.4529,84.2935
58.5029,84.2813
58.5529,84.2691
58.6029,84.257
58.6529,84.245
58.7029,84.2331
58.7529,84.2213
58.8029,84.2095
58.8529,84.1978
58.9029,84.1862
58.9529,84.1747
59.0029,84.1632
59.0529,84.1518
59.1029,84.1405
59.1529,84.1293
59.2029,84.1181
59.2529,84.107
59.3029,84.096
59.3529,84.085
59.4029,84.0741
59.4529,84.0633
59.5029,84.0525
59.5529,84.0418
59.6029,84.0312
59.6529,84.0207
59.7029,84.0102
59.7529,83.9998
59.8029,83.9894
59.8529,83.9791
59.9029,83.9689
59.9529,83.9587
60.0029,83.9486
60.0529,83.9386
60.1029,83.9286
60.1529,83.9187
60.2029,83.9089
60.2529,83.8991
60.3029,83.8893
60.3529,83.8797
60.4029,83.87
60.4529,83.8605
60.5029,83.851
60.5529,83.8416
60.6029,83.8322
60.6529,83.8228
60.7029,83.8136
60.7529,83.8044
60.8029,83.7952
60.8529,83.7861
60.9029,83.777
60.9529,83.768
61.0029,83.7591
61.0529,83.7502
61.1029,83.7414
61.1529,83.7326
61.2029,83.7238
61.2529,83.7152
61.3029,83.7065
61.3529,83.6979
61.4029,83.6894
61.4529,83.6809
61.5029,83.6725
61.5529,83.6641
61.6029,83.6558
61.6529,83.6475
61.7029,83.6393
61.7529,83.6311
61.8029,83.6229
61.8529,83.6148
61.9029,83.6068
61.9529,83.5988
62.0029,83.5908
62.0529,83.5829
62.1029,83.575
62.1529,83.5672
62.2029,83.5594
62.2529,83.5517
62.3029,83.544
62.3529,83.5363
62.4029,83.5287
62.4529,83.5212
62.5029,83.5137
62.5529,83.5062
62.6029,83.4987
62.6529,83.4913
62.7029,83.484
62.7529,83.4767
62.8029,83.4694
62.8529,83.4622
62.9029,83.455
62.9529,83.4478
63.0029,83.4407
63.0529,83.4336
63.1029,83.4266
63.1529,83.4196
63.2029,83.4126
63.2529,83.4057
63.3029,83.3988
63.3529,83.392
63.4029,83.3852
63.4529,83.3784
63.5029,83.3717
63.5529,83.365
63.6029,83.3583
63.6529,83.3517
63.7029,83.3451
63.7529,83.3385
63.8029,83.332
63.8529,83.3255
63.9029,83.3191
63.9529,83.3126
64.0029,83.3063
64.0529,83.2999
64.1029,83.2936
64.1529,83.2873
64.2029,83.2811
64.2529,83.2748
64.3029,83.2687
64.3529,83.2625
64.4029,83.2564
64.4529,83.2503
64.5029,83.2442
64.5529,83.2382
64.6029,83.2322
64.6529,83.2262
64.7029,83.2203
64.7529,83.2144
64.8029,83.2085
64.8529,83.2027
64.9029,83.1969
64.9529,83.1911
65.0029,83.1854
65.0529,83.1796
65.1029,83.1739
65.1529,83.1683
65.2029,83.1626
65.2529,83.157
65.3029,83.1515
65.3529,83.1459
65.4029,83.1404
65.4529,83.1349
65.5029,83.1294
65.5529,83.124
65.6029,83.1186
65.6529,83.1132
65.7029,83.1078
65.7529,83.1025
65.8029,83.0972
65.8529,83.0919
65.9029,83.0867
65.9529,83.0814
66.0029,83.0762
66.0529,83.0711
66.1029,83.0659
66.1529,83.0608
66.2029,83.0557
66.2529,83.0506
66.3029,83.0456
66.3529,83.0405
66.4029,83.0355
66.4529,83.0306
66.5029,83.0256
66.5529,83.0207
66.6029,83.0158
66.6529,83.0109
66.7029,83.006
66.7529,83.0012
66.8029,82.9964
66.8529,82.9916
66.9029,82.9868
66.9529,82.9821
67.0029,82.9774
67.0529,82.9727
67.1029,82.968
67.1529,82.9634
67.2029,82.9587
67.2529,82.9541
67.3029,82.9496
67.3529,82.945
67.4029,82.9404
67.4529,82.9359
67.5029,82.9314
67.5529,82.927
67.6029,82.9225
67.6529,82.9181
67.7029,82.9136
67.7529,82.9093
67.8029,82.9049
67.8529,82.9005
67.9029,82.8962
67.9529,82.8919
68.0029,82.8876
68.0529,82.8833
68.1029,82.8791
68.1529,82.8748
68.2029,82.8706
68.2529,82.8664
68.3029,82.8622
68.3529,82.8581
68.4029,82.854
68.4529,82.8498
68.5029,82.8457
68.5529,82.8417
68.6029,82.8376
68.6529,82.8336
68.7029,82.8295
68.7529,82.8255
68.8029,82.8215
68.8529,82.8176
68.9029,82.8136
68.9529,82.8097
69.0029,82.8058
69.0529,82.8019
69.1029,82.798
69.1529,82.7941
69.2029,82.7903
69.2529,82.7864
69.3029,82.7826
69.3529,82.7788
69.4029,82.775
69.4529,82.7713
69.5029,82.7675
69.5529,82.7638
69.6029,82.7601
69.6529,82.7564
69.7029,82.7527
69.7529,82.749
69.8029,82.7454
69.8529,82.7418
69.9029,82.7382
69.9529,82.7346
70.0029,82.731
70.0529,82.7274
70.1029,82.7239
70.1529,82.7203
70.2029,82.7168
70.2529,82.7133
70.3029,82.7099
70.3529,82.7065
70.4029,82.7032
70.4529,82.6999
70.5029,82.6969
70.5529,82.694
70.6029,82.6915
70.6529,82.6896
70.7029,82.6884
70.7529,82.6886
70.8029,82.6906
70.8529,82.6953
70.9029,82.7041
70.9529,82.7189
71.0029,82.7421
71.0529,82.7773
71.1029,82.8294
71.1529,82.905
71.2029,83.0127
71.2529,83.164
71.3029,83.3737
71.3529,83.6606
71.4029,84.0487
71.4529,84.5672
71.5029,85.2521
71.5529,86.1466
71.6029,87.3013
71.6529,88.7751
71.7029,90.6347
71.7529,92.9542
71.8029,95.8139
71.8529,99.2986
71.9029,103.495
71.9529,108.487
72.0029,114.355
72.0529,121.167
72.1029,128.975
72.1529,137.811
72.2029,147.676
72.2529,158.541
72.3029,170.34
72.3529,182.963
72.4029,196.26
72.4529,210.038
72.5029,224.065
72.5529,238.073
72.6029,251.768
72.6529,264.838
72.7029,276.964
72.7529,287.833
72.8029,297.155
72.8529,304.667
72.9029,310.155
72.9529,313.458
73.0029,314.478
73.0529,313.185
73.1029,309.616
73.1529,303.878
73.2029,296.139
73.2529,286.618
73.3029,275.581
73.3529,263.324
73.4029,250.16
73.4529,236.408
73.5029,222.377
73.5529,208.36
73.6029,194.621
73.6529,181.388
73.7029,168.848
73.7529,157.147
73.8029,146.39
73.8529,136.637
73.9029,127.916
73.9529,120.22
74.0029,113.515
74.0529,107.747
74.1029,102.846
74.1529,98.7308
74.2029,95.3175
74.2529,92.5191
74.3029,90.2514
74.3529,88.4346
74.4029,86.9955
74.4529,85.8682
74.5029,84.9949
74.5529,84.3258
74.6029,83.8185
74.6529,83.4379
74.7029,83.1554
74.7529,82.9477
74.8029,82.7966
74.8529,82.6875
74.9029,82.6094