File: xiao_2004/xrd/curve_2_fit.dat
29.3029,0.0
29.3529,0.0
29.4029,0.0
29.4529,0.0
29.5029,0.0
29.5529,0.0
29.6029,0.0
29.6529,0.0
29.7029,0.0
29.7529,0.0
29.8029,0.0
29.8529,0.0
29.9029,0.0
29.9529,0.0
30.0029,0.0
30.0529,0.0
30.1029,0.0
30.1529,0.0
30.2029,0.0
30.2529,0.0
30.3029,0.0
30.3529,0.0
30.4029,0.0
30.4529,0.0
30.5029,0.0
30.5529,0.0
30.6029,0.0
30.6529,0.0
30.7029,0.0
30.7529,0.0
30.8029,0.0
30.8529,0.0
30.9029,0.0
30.9529,0.0
31.0029,0.0
31.0529,0.0
31.1029,0.0
31.1529,0.0
31.2029,0.0
31.2529,0.0
31.3029,0.0
31.3529,0.0
31.4029,0.0
31.4529,0.0
31.5029,0.0
31.5529,0.0
31.6029,0.0
31.6529,0.0
31.7029,0.0
31.7529,0.0
31.8029,0.0
31.8529,0.0
31.9029,0.0
31.9529,0.0
32.0029,0.0
32.0529,0.0
32.1029,0.0
32.1529,0.0
32.2029,0.0
32.2529,0.0
32.3029,0.0
32.3529,0.0
32.4029,0.0
32.4529,0.0
32.5029,0.0
32.5529,0.0
32.6029,0.0
32.6529,0.0
32.7029,0.0
32.7529,0.0
32.8029,0.0
32.8529,0.0
32.9029,0.0
32.9529,0.0
33.0029,0.0
33.0529,0.0
33.1029,0.0
33.1529,0.0
33.2029,0.0
33.2529,0.0
33.3029,0.0
33.3529,0.0
33.4029,0.0
33.4529,0.0
33.5029,0.0
33.5529,0.0
33.6029,0.0
33.6529,0.0
33.7029,0.0
33.7529,0.0
33.8029,0.0
33.8529,0.0
33.9029,0.0
33.9529,0.0
34.0029,0.0
34.0529,0.0
34.1029,0.0
34.1529,0.0
34.2029,0.0
34.2529,0.0
34.3029,0.0
34.3529,0.0
34.4029,0.0
34.4529,0.0
34.5029,0.0
34.5529,0.0
34.6029,0.0
34.6529,0.0
34.7029,0.0
34.7529,0.0
34.8029,0.0
34.8529,0.0
34.9029,0.0
34.9529,0.0
35.0029,0.0
35.0529,0.0
35.1029,0.0
35.1529,0.0
35.2029,0.0
35.2529,0.0
35.3029,0.0
35.3529,0.0
35.4029,0.0
35.4529,0.0
35.5029,0.0
35.5529,0.0
35.6029,0.0
35.6529,0.0
35.7029,0.0
35.7529,0.0
35.8029,0.0
35.8529,0.0
35.9029,0.0
35.9529,0.0
36.0029,0.0
36.0529,0.0
36.1029,0.0
36.1529,0.0
36.2029,0.0
36.2529,0.0
36.3029,0.0
36.3529,0.0
36.4029,0.0
36.4529,0.0
36.5029,0.0
36.5529,0.0
36.6029,0.0
36.6529,0.0
36.7029,0.0
36.7529,0.0
36.8029,0.0
36.8529,0.0
36.9029,0.0
36.9529,0.0
37.0029,0.0
37.0529,0.0
37.1029,0.0
37.1529,0.0
37.2029,0.0
37.2529,0.0
37.3029,0.0
37.3529,0.0
37.4029,0.0
37.4529,0.0
37.5029,0.0
37.5529,0.0
37.6029,0.0
37.6529,0.0
37.7029,0.0
37.7529,0.0
37.8029,0.0
37.8529,0.0
37.9029,0.0
37.9529,0.0
38.0029,0.0
38.0529,0.0
38.1029,0.0
38.1529,0.0
38.2029,0.0
38.2529,0.0
38.3029,0.0
38.3529,0.0
38.4029,0.0
38.4529,0.0
38.5029,0.0
38.5529,0.0
38.6029,0.0
38.6529,0.0
38.7029,0.0
38.7529,0.0
38.8029,0.0
38.8529,0.0
38.9029,0.0
38.9529,0.0
39.0029,0.0
39.0529,0.0
39.1029,0.0
39.1529,0.0
39.2029,0.0
39.2529,0.0
39.3029,0.0
39.3529,0.0
39.4029,0.0
39.4529,0.0
39.5029,0.0
39.5529,0.0
39.6029,0.0
39.6529,0.0
39.7029,0.0
39.7529,0.0
39.8029,0.0
39.8529,0.0
39.9029,0.0
39.9529,0.0
40.0029,0.0
40.0529,0.0
40.1029,0.0
40.1529,0.0
40.2029,0.0
40.2529,0.0
40.3029,0.0
40.3529,0.0
40.4029,0.0
40.4529,0.0
40.5029,0.0
40.5529,0.0
40.6029,0.0
40.6529,0.0
40.7029,0.0
40.7529,0.0
40.8029,0.0
40.8529,0.0
40.9029,0.0
40.9529,0.0
41.0029,0.0
41.0529,0.0
41.1029,0.0
41.1529,0.0
41.2029,0.0
41.2529,0.0
41.3029,0.0
41.3529,0.0
41.4029,0.0
41.4529,0.0
41.5029,0.0
41.5529,0.0
41.6029,0.0
41.6529,0.0
41.7029,0.0
41.7529,0.0
41.8029,0.0
41.8529,0.0
41.9029,0.0
41.9529,0.0
42.0029,0.0
42.0529,0.0
42.1029,0.0
42.1529,0.0
42.2029,0.0
42.2529,0.0
42.3029,0.0
42.3529,0.0
42.4029,0.0
42.4529,0.0
42.5029,0.0
42.5529,0.0
42.6029,0.0
42.6529,0.0
42.7029,0.0
42.7529,0.0
42.8029,0.0
42.8529,0.0
42.9029,0.0
42.9529,0.0
43.0029,0.0
43.0529,0.0
43.1029,0.0
43.1529,0.0
43.2029,0.0
43.2529,0.0
43.3029,0.0
43.3529,0.0
43.4029,0.0
43.4529,0.0
43.5029,0.0
43.5529,0.0
43.6029,0.0
43.6529,0.0
43.7029,0.0
43.7529,0.0
43.8029,0.0
43.8529,0.0
43.9029,0.0
43.9529,0.0
44.0029,0.0
44.0529,0.0
44.1029,0.0
44.1529,0.0
44.2029,0.0
44.2529,0.0
44.3029,0.0
44.3529,0.0
44.4029,0.0
44.4529,0.0
44.5029,0.0
44.5529,0.0
44.6029,0.0
44.6529,0.0
44.7029,0.0
44.7529,0.0
44.8029,0.0
44.8529,0.0
44.9029,0.0
44.9529,0.0
45.0029,0.0
45.0529,0.0
45.1029,0.0
45.1529,0.0
45.2029,0.0
45.2529,0.0
45.3029,0.0
45.3529,0.0
45.4029,0.0
45.4529,0.0
45.5029,0.0
45.5529,0.0
45.6029,0.0
45.6529,0.0
45.7029,0.0
45.7529,0.0
45.8029,0.0
45.8529,0.0
45.9029,0.0
45.9529,0.0
46.0029,0.0
46.0529,0.0
46.1029,0.0
46.1529,0.0
46.2029,0.0
46.2529,0.0
46.3029,0.0
46.3529,0.0
46.4029,0.0
46.4529,0.0
46.5029,0.0
46.5529,0.0
46.6029,0.0
46.6529,0.0
46.7029,0.0
46.7529,0.0
46.8029,0.0
46.8529,0.0
46.9029,0.0
46.9529,0.0
47.0029,0.0
47.0529,0.0
47.1029,0.0
47.1529,0.0
47.2029,0.0
47.2529,0.0
47.3029,0.0
47.3529,0.0
47.4029,0.0
47.4529,0.0
47.5029,0.0
47.5529,0.0
47.6029,0.0
47.6529,0.0
47.7029,0.0
47.7529,0.0
47.8029,0.0
47.8529,0.0
47.9029,0.0
47.9529,0.0
48.0029,0.0
48.0529,0.0
48.1029,0.0
48.1529,0.0
48.2029,0.0
48.2529,0.0
48.3029,0.0
48.3529,0.0
48.4029,0.0
48.4529,0.0
48.5029,0.0
48.5529,0.0
48.6029,0.0
48.6529,0.0
48.7029,0.0
48.7529,0.0
48.8029,0.0
48.8529,0.0
48.9029,0.0
48.9529,0.0
49.0029,0.0
49.0529,0.0
49.1029,0.0
49.1529,0.0
49.2029,0.0
49.2529,0.0
49.3029,0.0
49.3529,0.0
49.4029,0.0
49.4529,0.0
49.5029,0.0
49.5529,0.0
49.6029,0.0
49.6529,0.0
49.7029,0.0
49.7529,0.0
49.8029,0.0
49.8529,0.0
49.9029,0.0
49.9529,0.0
50.0029,0.0
50.0529,0.0
50.1029,0.0
50.1529,0.0
50.2029,0.0
50.2529,0.0
50.3029,0.0
50.3529,0.0
50.4029,0.0
50.4529,0.0
50.5029,0.0
50.5529,0.0
50.6029,0.0
50.6529,0.0
50.7029,0.0
50.7529,0.0
50.8029,0.0
50.8529,0.0
50.9029,0.0
50.9529,0.0
51.0029,0.0
51.0529,0.0
51.1029,0.0
51.1529,0.0
51.2029,0.0
51.2529,0.0
51.3029,0.0
51.3529,0.0
51.4029,0.0
51.4529,0.0
51.5029,0.0
51.5529,0.0
51.6029,0.0
51.6529,0.0
51.7029,0.0
51.7529,0.0
51.8029,0.0
51.8529,0.0
51.9029,0.0
51.9529,0.0
52.0029,0.0
52.0529,0.0
52.1029,0.0
52.1529,0.0
52.2029,0.0
52.2529,0.0
52.3029,0.0
52.3529,0.0
52.4029,0.0
52.4529,0.0
52.5029,0.0
52.5529,0.0
52.6029,0.0
52.6529,0.0
52.7029,0.0
52.7529,0.0
52.8029,0.0
52.8529,0.0
52.9029,0.0
52.9529,0.0
53.0029,0.0
53.0529,0.0
53.1029,0.0
53.1529,0.0
53.2029,0.0
53.2529,0.0
53.3029,0.0
53.3529,0.0
53.4029,0.0
53.4529,0.0
53.5029,0.0
53.5529,0.0
53.6029,0.0
53.6529,0.0
53.7029,1.146e-321
53.7529,3.896e-320
53.8029,1.842667e-318
53.8529,8.52624e-317
53.9029,3.90554e-315
53.9529,1.77118e-313
54.0029,7.95246e-312
54.0529,3.53506e-310
54.1029,1.55579e-308
54.1529,6.7789e-307
54.2029,2.92433e-305
54.2529,1.24896e-303
54.3029,5.28118e-302
54.3529,2.2109e-300
54.4029,9.16355e-299
54.4529,3.76024e-297
54.5029,1.52765e-295
54.5529,6.14456e-294
54.6029,2.44689e-292
54.6529,9.64705e-291
54.7029,3.76558e-289
54.7529,1.45521e-287
54.8029,5.56772e-286
54.8529,2.10905e-284
54.9029,7.90955e-283
54.9529,2.9368e-281
55.0029,1.07958e-279
55.0529,3.92908e-278
55.1029,1.41574e-276
55.1529,5.05051e-275
55.2029,1.78379e-273
55.2529,6.23746e-272
55.3029,2.15938e-270
55.3529,7.40131e-269
55.4029,2.51157e-267
55.4529,8.43797e-266
55.5029,2.80665e-264
55.5529,9.24263e-263
55.6029,3.01342e-261
55.6529,9.72705e-260
55.7029,3.10856e-258
55.7529,9.83547e-257
55.8029,3.08097e-255
55.8529,9.55514e-254
55.9029,2.93389e-252
55.9529,8.91882e-251
56.0029,2.68428e-249
56.0529,7.99845e-248
56.1029,2.35961e-246
56.1529,6.8918e-245
56.2029,1.99288e-243
56.2529,5.70542e-242
56.3029,1.61715e-240
56.3529,4.53807e-239
56.4029,1.26081e-237
56.4529,3.46803e-236
56.5029,9.44438e-235
56.5529,2.54637e-233
56.6029,6.79716e-232
56.6529,1.79635e-230
56.7029,4.70012e-229
56.7529,1.21755e-227
56.8029,3.12262e-226
56.8529,7.92885e-225
56.9029,1.99323e-223
56.9529,4.96093e-222
57.0029,1.22243e-220
57.0529,2.98225e-219
57.1029,7.2031e-218
57.1529,1.72247e-216
57.2029,4.07796e-215
57.2529,9.5585e-214
57.3029,2.21816e-212
57.3529,5.0963e-211
57.4029,1.15924e-209
57.4529,2.61065e-208
57.5029,5.82078e-207
57.5529,1.2849e-205
57.6029,2.80813e-204
57.6529,6.07604e-203
57.7029,1.30161e-201
57.7529,2.76057e-200
57.8029,5.7966e-199
57.8529,1.20505e-197
57.9029,2.48024e-196
57.9529,5.05406e-195
58.0029,1.01963e-193
58.0529,2.03659e-192
58.1029,4.02736e-191
58.1529,7.88486e-190
58.2029,1.52836e-188
58.2529,2.93301e-187
58.3029,5.57261e-186
58.3529,1.04824e-184
58.4029,1.95218e-183
58.4529,3.59946e-182
58.5029,6.57068e-181
58.5529,1.18752e-179
58.6029,2.12485e-178
58.6529,3.76421e-177
58.7029,6.60199e-176
58.7529,1.14639e-174
58.8029,1.97083e-173
58.8529,3.35446e-172
58.9029,5.65266e-171
58.9529,9.4306e-170
59.0029,1.5577e-168
59.0529,2.54733e-167
59.1029,4.12423e-166
59.1529,6.61086e-165
59.2029,1.04913e-163
59.2529,1.64839e-162
59.3029,2.56417e-161
59.3529,3.94902e-160
59.4029,6.0213e-159
59.4529,9.08966e-158
59.5029,1.35851e-156
59.5529,2.01017e-155
59.6029,2.94485e-154
59.6529,4.27118e-153
59.7029,6.13326e-152
59.7529,8.71949e-151
59.8029,1.22729e-149
59.8529,1.71026e-148
59.9029,2.35957e-147
59.9529,3.22301e-146
60.0029,4.35859e-145
60.0529,5.83564e-144
60.1029,7.73549e-143
60.1529,1.01518e-141
60.2029,1.31904e-140
60.2529,1.69679e-139
60.3029,2.161e-138
60.3529,2.72483e-137
60.4029,3.40159e-136
60.4529,4.20417e-135
60.5029,5.14441e-134
60.5529,6.2323e-133
60.6029,7.47512e-132
60.6529,8.87657e-131
60.7029,1.04359e-129
60.7529,1.2147e-128
60.8029,1.39981e-127
60.8529,1.59707e-126
60.9029,1.804e-125
60.9529,2.01746e-124
61.0029,2.23373e-123
61.0529,2.44858e-122
61.1029,2.65739e-121
61.1529,2.8553e-120
61.2029,3.03743e-119
61.2529,3.19903e-118
61.3029,3.3357e-117
61.3529,3.4436e-116
61.4029,3.51961e-115
61.4529,3.56151e-114
61.5029,3.56806e-113
61.5529,3.53904e-112
61.6029,3.47533e-111
61.6529,3.37881e-110
61.7029,3.25229e-109
61.7529,3.09936e-108
61.8029,2.92422e-107
61.8529,2.73154e-106
61.9029,2.52616e-105
61.9529,2.31297e-104
62.0029,2.09671e-103
62.0529,1.88175e-102
62.1029,1.67203e-101
62.1529,1.4709e-100
62.2029,1.28108e-99
62.2529,1.10466e-98
62.3029,9.43062e-98
62.3529,7.97089e-97
62.4029,6.67007e-96
62.4529,5.52601e-95
62.5029,4.53262e-94
62.5529,3.68082e-93
62.6029,2.95935e-92
62.6529,2.35562e-91
62.7029,1.8564e-90
62.7529,1.44842e-89
62.8029,1.11886e-88
62.8529,8.55682e-88
62.9029,6.47898e-87
62.9529,4.85689e-86
63.0029,3.60468e-85
63.0529,2.6487e-84
63.1029,1.92688e-83
63.1529,1.38782e-82
63.2029,9.89626e-82
63.2529,6.98658e-81
63.3029,4.88332e-80
63.3529,3.37927e-79
63.4029,2.3152e-78
63.4529,1.5704e-77
63.5029,1.0546e-76
63.5529,7.01173e-76
63.6029,4.6155e-75
63.6529,3.00794e-74
63.7029,1.94078e-73
63.7529,1.23977e-72
63.8029,7.84082e-72
63.8529,4.90953e-71
63.9029,3.04351e-70
63.9529,1.86796e-69
64.0029,1.13506e-68
64.0529,6.82848e-68
64.1029,4.06713e-67
64.1529,2.39833e-66
64.2029,1.40019e-65
64.2529,8.09322e-65
64.3029,4.63141e-64
64.3529,2.62399e-63
64.4029,1.47187e-62
64.4529,8.17393e-62
64.5029,4.49419e-61
64.5529,2.44641e-60
64.6029,1.31845e-59
64.6529,7.03484e-59
64.7029,3.71623e-58
64.7529,1.9436e-57
64.8029,1.0064e-56
64.8529,5.15929e-56
64.9029,2.61858e-55
64.9529,1.31583e-54
65.0029,6.54622e-54
65.0529,3.22432e-53
65.1029,1.57233e-52
65.1529,7.5911e-52
65.2029,3.62847e-51
65.2529,1.71712e-50
65.3029,8.04512e-50
65.3529,3.73184e-49
65.4029,1.71384e-48
65.4529,7.79245e-48
65.5029,3.5078e-47
65.5529,1.56334e-46
65.6029,6.89809e-46
65.6529,3.01343e-45
65.7029,1.30332e-44
65.7529,5.58081e-44
65.8029,2.36592e-43
65.8529,9.93028e-43
65.9029,4.12647e-42
65.9529,1.69767e-41
66.0029,6.91489e-41
66.0529,2.78852e-40
66.1029,1.11332e-39
66.1529,4.40071e-39
66.2029,1.7222e-38
66.2529,6.67268e-38
66.3029,2.55961e-37
66.3529,9.72088e-37
66.4029,3.65505e-36
66.4529,1.36063e-35
66.5029,5.01466e-35
66.5529,1.82979e-34
66.6029,6.61024e-34
66.6529,2.36424e-33
66.7029,8.37185e-33
66.7529,2.93501e-32
66.8029,1.01872e-31
66.8529,3.5007e-31
66.9029,1.19101e-30
66.9529,4.01171e-30
67.0029,1.33784e-29
67.0529,4.41705e-29
67.1029,1.44384e-28
67.1529,4.67265e-28
67.2029,1.49715e-27
67.2529,4.74923e-27
67.3029,1.49155e-26
67.3529,4.63778e-26
67.4029,1.42771e-25
67.4529,4.35137e-25
67.5029,1.31301e-24
67.5529,3.92256e-24
67.6029,1.16019e-23
67.6529,3.39736e-23
67.7029,9.84949e-23
67.7529,2.82711e-22
67.8029,8.03394e-22
67.8529,2.26033e-21
67.9029,6.29609e-21
67.9529,1.73631e-20
68.0029,4.74069e-20
68.0529,1.28148e-19
68.1029,3.42958e-19
68.1529,9.08712e-19
68.2029,2.38379e-18
68.2529,6.1911e-18
68.3029,1.59193e-17
68.3529,4.05263e-17
68.4029,1.02143e-16
68.4529,2.5488e-16
68.5029,6.2968e-16
68.5529,1.54014e-15
68.6029,3.72958e-15
68.6529,8.94161e-15
68.7029,2.12241e-14
68.7529,4.98768e-14
68.8029,1.16045e-13
68.8529,2.67306e-13
68.9029,6.09607e-13
68.9529,1.37641e-12
69.0029,3.07683e-12
69.0529,6.8095e-12
69.1029,1.49205e-11
69.1529,3.23676e-11
69.2029,6.95175e-11
69.2529,1.4782e-10
69.3029,3.11195e-10
69.3529,6.48614e-10
69.4029,1.33844e-09
69.4529,2.73443e-09
69.5029,5.53085e-09
69.5529,1.10758e-08
69.6029,2.19591e-08
69.6529,4.31034e-08
69.7029,8.37655e-08
69.7529,1.61167e-07
69.8029,3.07004e-07
69.8529,5.78987e-07
69.9029,1.08106e-06
69.9529,1.99844e-06
70.0029,3.65752e-06
70.0529,6.62735e-06
70.1029,1.18891e-05
70.1529,2.11163e-05
70.2029,3.71315e-05
70.2529,6.46433e-05
70.3029,0.00011142
70.3529,0.000190133
70.4029,0.000321226
70.4529,0.000537304
70.5029,0.000889788
70.5529,0.00145885
70.6029,0.00236805
70.6529,0.00380565
70.7029,0.00605514
70.7529,0.00953841
70.8029,0.014876
70.8529,0.0229695
70.9029,0.0351135
70.9529,0.0531441
71.0029,0.0796328
71.0529,0.118137
71.1029,0.173515
71.1529,0.252317
71.2029,0.363255
71.2529,0.517767
71.3029,0.730658
71.3529,1.02082
71.4029,1.41203
71.4529,1.93373
71.5029,2.62182
71.5529,3.51939
71.6029,4.67724
71.6529,6.15416
71.7029,8.01687
71.7529,10.3395
71.8029,13.2023
71.8529,16.69
71.9029,20.8891
71.9529,25.8846
72.0029,31.7555
72.0529,38.5705
72.1029,46.3818
72.1529,55.2201
72.2029,65.0884
72.2529,75.9569
72.3029,87.7583
72.3529,100.384
72.4029,113.684
72.4529,127.465
72.5029,141.495
72.5529,155.506
72.6029,169.204
72.6529,182.277
72.7029,194.405
72.7529,205.278
72.8029,214.602
72.8529,222.117
72.9029,227.608
72.9529,230.914
73.0029,231.937
73.0529,230.646
73.1029,227.08
73.1529,221.345
73.2029,213.608
73.2529,204.09
73.3029,193.056
73.3529,180.802
73.4029,167.641
73.4529,153.891
73.5029,139.863
73.5529,125.849
73.6029,112.112
73.6529,98.8814
73.7029,86.3442
73.7529,74.6463
73.8029,63.8911
73.8529,54.1415
73.9029,45.4231
73.9529,37.7294
74.0029,31.0271
74.0529,25.2615
74.1029,20.3626
74.1529,16.2504
74.2029,12.8397
74.2529,10.0438
74.3029,7.77862
74.3529,5.96434
74.4029,4.52772
74.4529,3.40294
74.5029,2.53212
74.5529,1.8654
74.6029,1.36056
74.6529,0.982473
74.7029,0.702393
74.7529,0.49716
74.8029,0.348393
74.8529,0.241713
74.9029,0.166031