File: xiao_2004/xrd/xrd.csv
29.1688, 155.125
29.3029, 166.759
29.4305, 175.485
29.5504, 190.028
29.6921, 208.934
29.823, 207.479
29.9538, 201.662
30.0846, 214.751
30.2155, 216.205
30.3463, 220.568
30.4771, 216.205
30.608, 207.479
30.7388, 219.114
30.8696, 229.294
31.0005, 274.377
31.1258, 310.249
31.2131, 376.177
31.2131, 335.457
31.2621, 424.169
31.393, 438.712
31.4911, 448.892
31.5238, 500.277
31.581, 560.873
31.6328, 621.468
31.6873, 685.942
31.7364, 771.745
31.756, 735.679
31.7925, 823.269
31.8018, 891.967
31.8182, 940.443
31.8345, 1031.58
31.8345, 990.859
31.8579, 1096.68
31.8672, 1167.31
31.8999, 1306.93
31.8999, 1260.39
31.8999, 1215.79
31.9163, 1362.19
31.9163, 1400
31.9326, 1485.32
31.9326, 1438.78
31.9326, 1586.15
31.9408, 1539.61
31.949, 1621.05
31.9653, 1865.37
31.9653, 1811.08
31.9653, 1764.54
31.9653, 1718.01
31.9735, 1666.14
31.9981, 2008.86
31.9981, 1962.33
31.9981, 1917.73
32.0144, 2103.88
32.0144, 2058.8
32.0144, 2231.86
32.0214, 2167.87
32.0308, 2268.7
32.0373, 2330.75
32.0471, 2586.7
32.0471, 2540.17
32.0471, 2493.63
32.0471, 2447.09
32.0471, 2400.55
32.0635, 2649.24
32.0798, 2848.48
32.0798, 2801.94
32.0798, 2755.4
32.0798, 2708.86
32.0962, 3372.02
32.0962, 3315.79
32.0962, 3269.25
32.0962, 3222.71
32.0962, 3176.18
32.0962, 3129.64
32.0962, 3083.1
32.0962, 3036.57
32.0962, 2990.03
32.0962, 2943.49
32.0962, 2898.89
32.1289, 3796.68
32.1289, 3750.14
32.1289, 3703.6
32.1289, 3657.06
32.1289, 3610.53
32.1289, 3563.99
32.1289, 3517.45
32.1289, 3470.91
32.1289, 3424.38
32.1354, 3857.17
32.1616, 4382.27
32.1616, 4335.73
32.1616, 4289.2
32.1616, 4242.66
32.1616, 4196.12
32.1616, 4149.58
32.1616, 4103.05
32.1616, 4056.51
32.1616, 4009.97
32.1616, 3963.43
32.1616, 3918.84
32.1616, 4483.1
32.1698, 4436.57
32.1779, 4797.23
32.1779, 4750.69
32.1779, 4704.16
32.1779, 4657.62
32.1779, 4611.08
32.1779, 4564.54
32.1779, 4518.01
32.1943, 5441
32.1943, 5394.46
32.1943, 5347.92
32.1943, 5301.39
32.1943, 5254.85
32.1943, 5208.31
32.1943, 5161.77
32.1943, 5115.24
32.1943, 5068.7
32.1943, 5022.16
32.1943, 4975.62
32.1943, 4929.09
32.1943, 4882.55
32.1943, 4837.95
32.2107, 5507.89
32.227, 5848.2
32.227, 5801.66
32.227, 5755.12
32.227, 5708.59
32.227, 5662.05
32.227, 5615.51
32.227, 5568.98
32.2434, 6172.99
32.2434, 6126.45
32.2434, 6079.92
32.2434, 6033.38
32.2434, 5986.84
32.2434, 5940.3
32.2434, 5898.13
32.2504, 6238.23
32.2597, 6449.31
32.2597, 6402.77
32.2597, 6356.23
32.2597, 6309.7
32.2761, 6501.66
32.3906, 6513.78
32.3906, 6460.94
32.3906, 6414.4
32.3906, 6367.87
32.3906, 6321.33
32.3906, 6274.79
32.3971, 6083.99
32.4069, 6228.25
32.4069, 6181.72
32.4069, 6135.18
32.4233, 5960.66
32.4233, 5914.13
32.4233, 5867.59
32.4233, 5821.05
32.4298, 6023.49
32.4396, 5768.7
32.4396, 5722.16
32.4396, 5675.62
32.4396, 5629.09
32.4396, 5582.55
32.4396, 5536.01
32.4396, 5489.47
32.4396, 5442.94
32.4396, 5396.4
32.456, 5347.92
32.456, 5301.39
32.456, 5254.85
32.456, 5208.31
32.456, 5161.77
32.4625, 4877.51
32.4723, 5114.27
32.4723, 5067.73
32.4723, 5021.19
32.4723, 4974.65
32.4723, 4928.12
32.4805, 4590.72
32.4887, 4832.13
32.4887, 4785.6
32.4887, 4739.06
32.4887, 4692.52
32.4887, 4645.98
32.5214, 4545.15
32.5214, 4498.61
32.5214, 4452.08
32.5214, 4405.54
32.5214, 4359
32.5214, 4312.47
32.5214, 4265.93
32.5214, 4219.39
32.5214, 4172.85
32.5214, 4126.32
32.5214, 4079.78
32.5214, 4033.24
32.5214, 3986.7
32.5377, 3936.29
32.5377, 3889.75
32.5377, 3843.21
32.5377, 3796.68
32.5377, 3750.14
32.5377, 3194.6
32.5541, 3695.84
32.5541, 3649.31
32.5541, 3602.77
32.5541, 3556.23
32.5541, 3509.7
32.5541, 3463.16
32.5541, 3416.62
32.5541, 3370.08
32.5541, 3323.55
32.5541, 3277.01
32.5541, 3230.47
32.5868, 3079.22
32.5868, 3032.69
32.5868, 2986.15
32.5868, 2943.49
32.5868, 2895.01
32.5933, 3142.83
32.6195, 2788.37
32.6195, 2604.16
32.6277, 2842.66
32.6359, 2735.04
32.6359, 2688.5
32.6359, 2641.97
32.644, 2448.55
32.6522, 2497.51
32.6604, 2551.8
32.6686, 2394.74
32.6686, 2348.2
32.6686, 2301.66
32.6686, 2255.12
32.6686, 2208.59
32.6849, 2152.35
32.6849, 2105.82
32.6849, 2059.28
32.7013, 2010.8
32.7013, 1964.27
32.7013, 1917.73
32.7176, 1865.37
32.7176, 1818.84
32.7176, 1774.24
32.7503, 1652.08
32.7503, 1605.54
32.7503, 1559
32.7569, 1714.13
32.7667, 1507.62
32.783, 1460.11
32.8076, 1405.82
32.8419, 1342.99
32.8877, 1281.33
32.8975, 1213.85
32.8975, 1167.31
32.9139, 1116.9
32.9139, 1070.36
32.9204, 1019.56
32.9466, 938.504
32.9728, 971.856
33.0829, 962.742
33.1592, 906.994
33.1864, 880.332
33.3227, 893.906
33.4536, 905.54
33.5774, 896.399
33.6568, 981.994
33.7643, 1023.82
33.7643, 986.981
33.7806, 1085.87
33.8052, 1155.68
33.8297, 1202.22
33.8461, 1260.39
33.8624, 1359.28
33.8624, 1318.56
33.8951, 1475.62
33.8951, 1421.33
33.9409, 1547.76
33.9605, 1510.53
33.9671, 1618.73
33.9769, 1690.86
33.9933, 1745.15
33.9933, 1783.93
34.026, 1923.55
34.026, 1869.25
34.026, 1822.71
34.0587, 2024.38
34.0587, 1977.84
34.0652, 2086.43
34.0914, 2241.55
34.0914, 2195.01
34.0914, 2148.48
34.0914, 2342.38
34.0996, 2295.84
34.1077, 2377.29
34.1241, 2559.56
34.1241, 2513.02
34.1241, 2466.48
34.1241, 2425.76
34.1404, 2626.45
34.1568, 2691.41
34.1731, 2787.4
34.1731, 2742.31
34.1802, 2852.63
34.1895, 2924.1
34.2059, 2979.36
34.2059, 3017.17
34.2222, 3149.03
34.2222, 3102.49
34.2222, 3055.96
34.2222, 3249.86
34.2304, 3203.32
34.2386, 3284.76
34.2549, 3467.04
34.2549, 3420.5
34.2549, 3373.96
34.2549, 3331.3
34.2713, 3533.93
34.2876, 3920.78
34.2876, 3874.24
34.2876, 3827.7
34.2876, 3781.16
34.2876, 3734.63
34.2876, 3688.09
34.2876, 3641.55
34.2876, 3595.01
34.2876, 4017.73
34.3072, 3981.66
34.3203, 4331.86
34.3203, 4285.32
34.3203, 4238.78
34.3203, 4192.24
34.3203, 4145.71
34.3203, 4099.17
34.3203, 4052.63
34.3269, 4394.68
34.3367, 4558.73
34.3367, 4512.19
34.3367, 4465.65
34.353, 4621.26
34.3694, 4960.11
34.3694, 4913.57
34.3694, 4867.04
34.3694, 4820.5
34.3694, 4773.96
34.3694, 4727.42
34.3694, 4680.89
34.3857, 5045.43
34.3857, 4998.89
34.4021, 5092.45
34.4091, 5154.57
34.4315, 5278.89
34.4348, 5224.79
34.4675, 5425.48
34.4675, 5378.95
34.4675, 5332.41
34.4675, 5553.46
34.4745, 5488.64
34.5166, 5175.35
34.5329, 5233.52
34.5384, 5293.63
34.5558, 5109.03
34.5558, 4992.69
34.5656, 5044.46
34.5738, 4800.14
34.582, 4948.48
34.582, 4901.94
34.582, 4855.4
34.5984, 4762.33
34.5984, 4715.79
34.5984, 4669.25
34.5984, 4622.71
34.5984, 4576.18
34.5984, 4529.64
34.5984, 4483.1
34.6147, 4428.81
34.6147, 4382.27
34.6147, 4335.73
34.6147, 4289.2
34.6147, 4244.6
34.6212, 4079.39
34.6311, 4128.25
34.6365, 4186.43
34.6392, 3901.39
34.6474, 3951.8
34.654, 4013.07
34.6719, 3518.91
34.6801, 3850.97
34.6801, 3804.43
34.6801, 3757.89
34.6801, 3711.36
34.6801, 3664.82
34.6801, 3618.28
34.6801, 3571.75
34.6965, 3406.93
34.6965, 3360.39
34.7019, 3463.16
34.7128, 3311.91
34.7128, 3265.37
34.7128, 3218.84
34.7128, 3172.3
34.7128, 3125.76
34.7292, 2999.72
34.7292, 2953.19
34.7346, 3055.96
34.7374, 2577.98
34.7455, 2908.59
34.7455, 2862.05
34.7455, 2815.51
34.7455, 2768.98
34.7455, 2722.44
34.7455, 2675.9
34.7455, 2629.36
34.7782, 2454.85
34.7848, 2516.9
34.7848, 2408.7
34.811, 2301.66
34.8191, 2354.02
34.8273, 2202.77
34.8437, 2245.43
34.8437, 2160.11
34.8437, 2113.57
34.8709, 2053.46
34.8927, 1984.63
34.9091, 1931.3
34.9091, 1886.7
34.9418, 1780.06
34.95, 1833.38
34.9745, 1718.01
34.9745, 1671.47
35.0236, 1628.32
35.053, 1571.02
35.089, 1516.34
35.0972, 1421.81
35.1053, 1473.68
35.1217, 1309.83
35.1446, 1360.44
35.1773, 1261.55
35.2231, 1198.73
35.2525, 1149.86
35.3474, 1110.3
35.4193, 1067.26
35.4586, 1016.07
35.5726, 1047.65
35.6123, 1122.23
35.645, 1176.04
35.6777, 1226.94
35.7922, 1259.42
35.8331, 1333.1
35.874, 1386.91
35.9427, 1436.07
35.9557, 1485.32
35.9884, 1531.86
35.995, 1593.13
36.0212, 1730.12
36.0293, 1664.68
36.0375, 1789.75
36.0539, 1828.53
36.0604, 1888.64
36.1029, 2032.62
36.1029, 1970.08
36.1258, 2095.73
36.152, 2214.4
36.152, 2167.87
36.1683, 2260.94
36.1847, 2388.92
36.1847, 2342.38
36.1847, 2301.66
36.1847, 2127.15
36.1929, 2441.27
36.2174, 2571.19
36.2174, 2524.65
36.2174, 2490.72
36.2239, 2633.24
36.2501, 2682.69
36.2567, 2831.02
36.2567, 2737.95
36.2665, 2900.83
36.2828, 2955.12
36.2828, 2993.91
36.2992, 3168.42
36.2992, 3121.88
36.2992, 3075.35
36.2992, 3028.81
36.3155, 3253.74
36.3155, 3213.02
36.3221, 3315.01
36.3482, 3517.45
36.3482, 3470.91
36.3482, 3424.38
36.3482, 3377.84
36.3548, 3580.28
36.3809, 3920.78
36.3809, 3874.24
36.3809, 3827.7
36.3809, 3781.16
36.3809, 3734.63
36.3809, 3688.09
36.3809, 3641.55
36.3875, 3982.83
36.3973, 4192.24
36.3973, 4145.71
36.3973, 4099.17
36.3973, 4052.63
36.4137, 4607.2
36.4137, 4560.66
36.4137, 4514.13
36.4137, 4467.59
36.4137, 4421.05
36.4137, 4374.52
36.4137, 4327.98
36.4137, 4281.44
36.4137, 4238.78
36.4202, 4669.25
36.4464, 5099.72
36.4464, 5053.19
36.4464, 5006.65
36.4464, 4960.11
36.4464, 4913.57
36.4464, 4867.04
36.4464, 4820.5
36.4464, 4773.96
36.4464, 4731.3
36.4464, 5204.43
36.466, 5160.22
36.4791, 5371.19
36.4791, 5324.65
36.4791, 5278.12
36.4791, 5231.58
36.4791, 5495.29
36.4954, 5439.06
36.5118, 5890.86
36.5118, 5844.32
36.5118, 5797.78
36.5118, 5751.25
36.5118, 5704.71
36.5118, 5658.17
36.5118, 5611.63
36.5118, 5565.1
36.5118, 5518.56
36.5183, 5951.36
36.5281, 6484.21
36.5281, 6437.67
36.5281, 6391.14
36.5281, 6344.6
36.5281, 6298.06
36.5281, 6204.99
36.5281, 6158.45
36.5281, 6111.91
36.5281, 6065.37
36.5281, 6018.84
36.5445, 6709.14
36.5445, 6662.6
36.5445, 6616.07
36.5445, 6569.53
36.5445, 6526.87
36.5445, 6253.46
36.5445, 6809.97
36.5641, 6769.25
36.5772, 7306.37
36.5772, 7259.83
36.5772, 7213.3
36.5772, 7166.76
36.5772, 7120.22
36.5772, 7073.68
36.5772, 7027.15
36.5772, 6980.61
36.5772, 6934.07
36.5772, 6887.53
36.5772, 6841
36.5935, 7374.24
36.6099, 7996.68
36.6099, 7950.14
36.6099, 7903.6
36.6099, 7857.06
36.6099, 7810.53
36.6099, 7763.99
36.6099, 7717.45
36.6099, 7670.91
36.6099, 7624.38
36.6099, 7577.84
36.6099, 7531.3
36.6099, 7484.76
36.6099, 7438.23
36.6263, 8275.9
36.6263, 8229.36
36.6263, 8182.83
36.6263, 8136.29
36.6263, 8089.75
36.6263, 8043.21
36.6426, 8630.75
36.6426, 8368.98
36.6508, 8332.62
36.659, 8921.61
36.659, 8875.07
36.659, 8828.53
36.659, 8781.99
36.659, 8735.46
36.659, 8688.92
36.659, 8502.77
36.659, 8456.23
36.659, 8409.7
36.6644, 8562.88
36.6753, 9063.16
36.6753, 9016.62
36.6835, 8963.78
36.6884, 9164.76
36.7015, 9105.43
36.7244, 9233.8
36.7407, 9439.34
36.7571, 9337.53
36.7571, 9291
36.7571, 9526.59
36.768, 9396.68
36.7734, 9474.24
36.8062, 9200.83
36.8062, 9144.6
36.8062, 9098.06
36.8062, 9051.52
36.8062, 9004.99
36.8062, 8958.45
36.8062, 8911.91
36.8062, 8867.31
36.8307, 8463.5
36.8389, 8745.15
36.8389, 8698.61
36.8389, 8652.08
36.8389, 8605.54
36.8389, 8559
36.8389, 8512.47
36.8389, 9241.55
36.8454, 8806.43
36.8634, 8245.36
36.8716, 8341.83
36.8716, 8295.29
36.8716, 7973.41
36.8781, 8403.88
36.8879, 8124.65
36.8879, 8078.12
36.8879, 8031.58
36.8879, 7845.43
36.8879, 7798.89
36.8879, 7752.35
36.8879, 7705.82
36.8934, 8182.83
36.8934, 7903.6
36.9043, 7663.16
36.9043, 7616.62
36.9043, 7570.08
36.9043, 7523.55
36.9043, 7477.01
36.9043, 7430.47
36.9043, 7383.93
36.9043, 7337.4
36.9043, 7290.86
36.9043, 7244.32
36.9043, 7197.78
36.9043, 7153.19
36.9288, 6885.6
36.937, 7031.02
36.937, 6984.49
36.937, 6937.95
36.937, 6327.15
36.9435, 7093.85
36.9697, 6763.43
36.9697, 6716.9
36.9697, 6670.36
36.9697, 6623.82
36.9697, 6577.29
36.9697, 6530.75
36.9697, 6484.21
36.9697, 6437.67
36.9697, 6391.14
36.9697, 6344.6
36.9762, 6823.93
36.986, 6286.43
36.986, 6239.89
36.986, 6193.35
36.986, 6146.81
36.986, 6100.28
36.986, 6053.74
36.986, 6007.2
36.986, 5914.13
36.986, 5867.59
36.986, 5821.05
36.986, 5774.52
36.986, 5727.98
36.986, 5681.44
36.986, 5634.9
37.0024, 5956.79
37.0024, 5590.3
37.0188, 5541.83
37.0188, 5495.29
37.0188, 5448.75
37.0188, 5402.22
37.0188, 5355.68
37.0188, 5309.14
37.0188, 5262.6
37.0269, 4503.46
37.0351, 5208.31
37.0351, 5161.77
37.0351, 5115.24
37.0351, 5068.7
37.0351, 5022.16
37.0351, 4975.62
37.0351, 4929.09
37.0351, 4882.55
37.0351, 4836.01
37.0351, 4789.47
37.0351, 4742.94
37.0351, 4696.4
37.0351, 4649.86
37.0351, 4603.32
37.0351, 4556.79
37.0596, 4033.73
37.0678, 4455.96
37.0678, 4409.42
37.0678, 4362.88
37.0678, 4316.34
37.0678, 4269.81
37.0678, 4223.27
37.0678, 4176.73
37.0678, 4130.19
37.0678, 4083.66
37.0842, 3846.12
37.1005, 3924.65
37.1005, 3878.12
37.1005, 3750.14
37.1071, 3686.15
37.1087, 3977.01
37.1169, 3546.54
37.1223, 3788.92
37.1223, 3602.77
37.1332, 3498.06
37.1332, 3451.52
37.1332, 3404.99
37.1332, 3358.45
37.1332, 3022.99
37.1496, 3310.94
37.1496, 3264.4
37.1496, 3217.87
37.1496, 3171.33
37.1659, 3040.44
37.1725, 3100.94
37.1987, 2982.27
37.1987, 2935.73
37.1987, 2889.2
37.1987, 2842.66
37.1987, 2796.12
37.1987, 2751.52
37.2232, 2508.17
37.2314, 2703.05
37.2314, 2656.51
37.2314, 2609.97
37.2314, 2563.43
37.2477, 2470.36
37.2477, 2423.82
37.2477, 2377.29
37.2641, 2330.75
37.2641, 2284.21
37.2641, 2237.67
37.2641, 2191.14
37.2641, 2146.54
37.2968, 2098.06
37.3033, 1991.02
37.3131, 2042.8
37.3213, 1894.46
37.3295, 1946.81
37.3295, 1685.04
37.3622, 1842.11
37.3622, 1795.57
37.3622, 1749.03
37.3622, 1702.49
37.3949, 1632.69
37.3949, 1586.15
37.4194, 1533.8
37.4603, 1464.96
37.4848, 1346.19
37.493, 1396.12
37.5257, 1295.29
37.5421, 1245.36
37.5748, 1190.58
37.5748, 1106.23
37.5911, 1140.17
37.6239, 1050.97
37.6239, 996.676
37.6659, 925.485
37.7874, 884.211
37.8038, 837.188
37.8365, 786.288
37.8692, 731.025
37.8964, 688.366
37.9313, 642.604
37.9967, 576.288
38.0654, 544.875
38.1962, 524.515
38.2944, 470.222
38.3995, 421.053
38.5257, 410.249
38.6215, 416.898
38.6296, 364.543
38.6901, 328.476
38.8079, 333.13
38.8602, 309.861
38.9714, 344.765
39.1121, 334.003
39.2331, 299.391
39.2756, 283.102
39.4065, 294.737
39.5373, 274.377
39.6714, 244.709
39.7662, 209.418
39.8714, 253.186
39.9854, 236.565
40.126, 227.839
40.2569, 216.205
40.3986, 199.723
40.494, 217.659
40.5839, 188.573
40.7115, 166.759
40.7911, 141.551
40.9012, 170.249
41.0419, 169.668
41.1836, 163.85
41.3035, 146.399
41.4344, 160.942
41.5652, 149.307
41.6339, 102.77
41.7647, 128.366
41.8432, 120.222
71.4604, 312.188
71.4833, 266.814
71.624, 230.748
71.6949, 205.54
71.7581, 255.18
71.8857, 248.199
71.9511, 210.388
72.0819, 192.936
72.216, 183.047
72.2945, 160.942
72.3272, 203.601
72.409, 236.565
72.5398, 255.471
72.6706, 262.742
72.8015, 297.645
72.9323, 328.186
73.0631, 304.917
73.158, 262.161
73.2921, 238.019
73.4229, 210.388
73.5636, 195.845
73.6682, 143.49
73.6791, 170.637
73.8154, 162.396
73.9463, 127.493
74.0171, 114.404
74.1425, 117.313
74.2733, 110.042
74.4042, 98.4072
74.535, 110.042
74.6757, 102.77
74.7869, 77.1745
74.9275, 80.9557