File: sun_1994/xrd_sic_no_anneal/curve_total_fit.dat
14.943,-0.499244
14.963,-0.498901
14.983,-0.498409
15.003,-0.497707
15.023,-0.496711
15.043,-0.495303
15.063,-0.493322
15.083,-0.490548
15.103,-0.48668
15.123,-0.481313
15.143,-0.473899
15.163,-0.463705
15.183,-0.449754
15.203,-0.43075
15.223,-0.40498
15.243,-0.370198
15.263,-0.323471
15.283,-0.260988
15.303,-0.177824
15.323,-0.0676491
15.343,0.07763
15.363,0.268304
15.383,0.517386
15.403,0.841246
15.423,1.26036
15.443,1.80019
15.463,2.49223
15.483,3.37523
15.503,4.49654
15.523,5.91373
15.543,7.69638
15.563,9.92806
15.583,12.7085
15.603,16.1562
15.623,20.4106
15.643,25.6352
15.663,32.0204
15.683,39.7862
15.703,49.1851
15.723,60.505
15.743,74.0719
15.763,90.2516
15.783,109.452
15.803,132.124
15.823,158.761
15.843,189.901
15.863,226.119
15.883,268.031
15.903,316.284
15.923,371.549
15.943,434.519
15.963,505.89
15.983,586.357
16.003,676.594
16.023,777.242
16.043,888.89
16.063,1012.05
16.083,1147.16
16.103,1294.53
16.123,1454.34
16.143,1626.63
16.163,1811.24
16.183,2007.86
16.203,2215.94
16.223,2434.74
16.243,2663.26
16.263,2900.31
16.283,3144.45
16.303,3394.01
16.323,3647.13
16.343,3901.75
16.363,4155.62
16.383,4406.38
16.403,4651.54
16.423,4888.57
16.443,5114.89
16.463,5327.95
16.483,5525.28
16.503,5704.49
16.523,5863.4
16.543,6000.01
16.563,6112.57
16.583,6199.63
16.603,6260.04
16.623,6293
16.643,6298.87
16.663,6288.69
16.683,6266.14
16.703,6231.35
16.723,6184.53
16.743,6125.94
16.763,6055.93
16.783,5974.9
16.803,5883.33
16.823,5781.73
16.843,5670.66
16.863,5550.76
16.883,5422.66
16.903,5287.07
16.923,5144.7
16.943,4996.27
16.963,4842.56
16.983,4684.31
17.003,4522.29
17.023,4357.25
17.043,4189.95
17.063,4021.12
17.083,3851.48
17.103,3681.71
17.123,3512.48
17.143,3344.41
17.163,3178.1
17.183,3014.1
17.203,2852.92
17.223,2695.02
17.243,2540.84
17.263,2390.75
17.283,2245.08
17.303,2104.13
17.323,1968.18
17.343,1838.46
17.363,1727.46
17.383,1714.07
17.403,2036.85
17.423,2869.73
17.443,3627.99
17.463,3348.84
17.483,2256.16
17.503,1362.54
17.523,975.005
17.543,835.899
17.563,757.016
17.583,689.672
17.603,627.449
17.623,569.723
17.643,516.282
17.663,466.925
17.683,421.447
17.703,379.643
17.723,341.305
17.743,306.227
17.763,274.205
17.783,245.041
17.803,218.54
17.823,194.514
17.843,172.78
17.863,153.165
17.883,135.501
17.903,119.631
17.923,105.402
17.943,92.6752
17.963,81.3158
17.983,71.1995
18.003,62.21
18.023,54.2394
18.043,47.1876
18.063,40.9622
18.083,35.4784
18.103,30.6583
18.123,26.4307
18.143,22.7307
18.163,19.4996
18.183,16.6839
18.203,14.2354
18.223,12.1109
18.243,10.2715
18.263,8.68212
18.283,7.31185
18.303,6.13295
18.323,5.12085
18.343,4.25378
18.363,3.51253
18.383,2.88018
18.403,2.34186
18.423,1.88456
18.443,1.4969
18.463,1.16896
18.483,0.892127
18.503,0.658919
18.523,0.462874
18.543,0.298414
18.563,0.160737
18.583,0.0457222
18.603,-0.0501616
18.623,-0.12993
18.643,-0.196154
18.663,-0.25102
18.683,-0.296381
18.703,-0.333807
18.723,-0.364621
18.743,-0.38994
18.763,-0.4107
18.783,-0.427687
18.803,-0.441558
18.823,-0.452862
18.843,-0.462054
18.863,-0.469514
18.883,-0.475556
18.903,-0.480439
18.923,-0.484378
18.943,-0.487548
18.963,-0.490094
18.983,-0.492135
19.003,-0.493768
19.023,-0.495072
19.043,-0.496111
19.063,-0.496936
19.083,-0.497592
19.103,-0.49811
19.123,-0.49852
19.143,-0.498844
19.163,-0.499098
19.183,-0.499298
19.203,-0.499455
19.223,-0.499577
19.243,-0.499673
19.263,-0.499747
19.283,-0.499805
19.303,-0.49985
19.323,-0.499885
19.343,-0.499912
19.363,-0.499933
19.383,-0.499949
19.403,-0.499961
19.423,-0.49997
19.443,-0.499977
19.463,-0.499983
19.483,-0.499987
19.503,-0.49999
19.523,-0.499993
19.543,-0.499994
19.563,-0.499996
19.583,-0.499997
19.603,-0.499998
19.623,-0.499998
19.643,-0.499999
19.663,-0.499999
19.683,-0.499999
19.703,-0.499999
19.723,-0.5
19.743,-0.5
19.763,-0.5
19.783,-0.5
19.803,-0.5
19.823,-0.5
19.843,-0.5
19.863,-0.5
19.883,-0.5
19.903,-0.5
19.923,-0.5
19.943,-0.5
19.963,-0.5
19.983,-0.5
20.003,-0.5
20.023,-0.5
20.043,-0.5
20.063,-0.5
20.083,-0.5
20.103,-0.5
20.123,-0.5
20.143,-0.5
20.163,-0.5
20.183,-0.5
20.203,-0.5
20.223,-0.5
20.243,-0.5
20.263,-0.5
20.283,-0.5
20.303,-0.5
20.323,-0.5
20.343,-0.5
20.363,-0.5
20.383,-0.5
20.403,-0.5
20.423,-0.5
20.443,-0.5
20.463,-0.5
20.483,-0.5
20.503,-0.5
20.523,-0.5
20.543,-0.5
20.563,-0.5
20.583,-0.5
20.603,-0.5
20.623,-0.5
20.643,-0.5
20.663,-0.5
20.683,-0.5
20.703,-0.5
20.723,-0.5
20.743,-0.5
20.763,-0.5
20.783,-0.5
20.803,-0.5
20.823,-0.5
20.843,-0.5
20.863,-0.5
20.883,-0.5
20.903,-0.5
20.923,-0.5
20.943,-0.5
20.963,-0.5
20.983,-0.5
21.003,-0.5
21.023,-0.5
21.043,-0.5
21.063,-0.5
21.083,-0.5
21.103,-0.5
21.123,-0.5
21.143,-0.5
21.163,-0.5
21.183,-0.5
21.203,-0.5
21.223,-0.5
21.243,-0.5
21.263,-0.5
21.283,-0.5
21.303,-0.5
21.323,-0.5
21.343,-0.5
21.363,-0.5
21.383,-0.5
21.403,-0.5
21.423,-0.5
21.443,-0.5
21.463,-0.5
21.483,-0.5
21.503,-0.5
21.523,-0.5
21.543,-0.5
21.563,-0.5
21.583,-0.5
21.603,-0.5
21.623,-0.5
21.643,-0.5
21.663,-0.5
21.683,-0.5
21.703,-0.5
21.723,-0.5
21.743,-0.5
21.763,-0.5
21.783,-0.5
21.803,-0.5
21.823,-0.5
21.843,-0.5
21.863,-0.5
21.883,-0.5
21.903,-0.5
21.923,-0.5
21.943,-0.5
21.963,-0.5
21.983,-0.5
22.003,-0.5
22.023,-0.5
22.043,-0.5
22.063,-0.5
22.083,-0.5
22.103,-0.5
22.123,-0.5
22.143,-0.5
22.163,-0.5
22.183,-0.5
22.203,-0.5
22.223,-0.5
22.243,-0.5
22.263,-0.5
22.283,-0.5
22.303,-0.5
22.323,-0.5
22.343,-0.5
22.363,-0.5
22.383,-0.5
22.403,-0.5
22.423,-0.5
22.443,-0.5
22.463,-0.5
22.483,-0.5
22.503,-0.5
22.523,-0.5
22.543,-0.5
22.563,-0.5
22.583,-0.5
22.603,-0.5
22.623,-0.5
22.643,-0.5
22.663,-0.5
22.683,-0.5
22.703,-0.5
22.723,-0.5
22.743,-0.5
22.763,-0.5
22.783,-0.5
22.803,-0.5
22.823,-0.5
22.843,-0.5
22.863,-0.5
22.883,-0.5
22.903,-0.5
22.923,-0.5
22.943,-0.5
22.963,-0.5
22.983,-0.5
23.003,-0.5
23.023,-0.5
23.043,-0.5
23.063,-0.5
23.083,-0.5
23.103,-0.5
23.123,-0.5
23.143,-0.5
23.163,-0.5
23.183,-0.5
23.203,-0.5
23.223,-0.5
23.243,-0.5
23.263,-0.5
23.283,-0.5
23.303,-0.5
23.323,-0.5
23.343,-0.5
23.363,-0.5
23.383,-0.5
23.403,-0.5
23.423,-0.5
23.443,-0.5
23.463,-0.5
23.483,-0.5
23.503,-0.5
23.523,-0.5
23.543,-0.5
23.563,-0.5
23.583,-0.5
23.603,-0.5
23.623,-0.5
23.643,-0.5
23.663,-0.5
23.683,-0.5
23.703,-0.5
23.723,-0.5
23.743,-0.5
23.763,-0.5
23.783,-0.5
23.803,-0.5
23.823,-0.5
23.843,-0.5
23.863,-0.5
23.883,-0.5
23.903,-0.5
23.923,-0.5
23.943,-0.5
23.963,-0.5
23.983,-0.5
24.003,-0.5
24.023,-0.5
24.043,-0.5
24.063,-0.5
24.083,-0.5
24.103,-0.5
24.123,-0.5
24.143,-0.5
24.163,-0.5
24.183,-0.5
24.203,-0.5
24.223,-0.5
24.243,-0.5
24.263,-0.5
24.283,-0.5
24.303,-0.5
24.323,-0.5
24.343,-0.5
24.363,-0.5
24.383,-0.5
24.403,-0.5
24.423,-0.5
24.443,-0.5
24.463,-0.5
24.483,-0.5
24.503,-0.5
24.523,-0.5
24.543,-0.5
24.563,-0.5
24.583,-0.5
24.603,-0.5
24.623,-0.5
24.643,-0.5
24.663,-0.5
24.683,-0.5
24.703,-0.5
24.723,-0.5
24.743,-0.5
24.763,-0.5
24.783,-0.5
24.803,-0.5
24.823,-0.5
24.843,-0.5
24.863,-0.5
24.883,-0.5
24.903,-0.5
24.923,-0.5
24.943,-0.5
24.963,-0.5
24.983,-0.5
25.003,-0.5
25.023,-0.5
25.043,-0.5
25.063,-0.5
25.083,-0.5
25.103,-0.5
25.123,-0.5
25.143,-0.5
25.163,-0.5
25.183,-0.5
25.203,-0.5
25.223,-0.5
25.243,-0.5
25.263,-0.5
25.283,-0.5
25.303,-0.5
25.323,-0.5
25.343,-0.5
25.363,-0.5
25.383,-0.5
25.403,-0.5
25.423,-0.5
25.443,-0.5
25.463,-0.5
25.483,-0.5
25.503,-0.5
25.523,-0.5
25.543,-0.5
25.563,-0.5
25.583,-0.5
25.603,-0.5
25.623,-0.5
25.643,-0.5
25.663,-0.5
25.683,-0.5
25.703,-0.5
25.723,-0.5
25.743,-0.5
25.763,-0.5
25.783,-0.5
25.803,-0.5
25.823,-0.5
25.843,-0.5
25.863,-0.5
25.883,-0.5
25.903,-0.5
25.923,-0.5
25.943,-0.5
25.963,-0.5
25.983,-0.5
26.003,-0.5
26.023,-0.5
26.043,-0.5
26.063,-0.5
26.083,-0.5
26.103,-0.5
26.123,-0.5
26.143,-0.5
26.163,-0.5
26.183,-0.5
26.203,-0.5
26.223,-0.5
26.243,-0.5
26.263,-0.5
26.283,-0.5
26.303,-0.5
26.323,-0.5
26.343,-0.5
26.363,-0.5
26.383,-0.5
26.403,-0.5
26.423,-0.5
26.443,-0.5
26.463,-0.5
26.483,-0.5
26.503,-0.5
26.523,-0.5
26.543,-0.5
26.563,-0.5
26.583,-0.5
26.603,-0.5
26.623,-0.5
26.643,-0.5
26.663,-0.5
26.683,-0.5
26.703,-0.5
26.723,-0.5
26.743,-0.5
26.763,-0.5
26.783,-0.5
26.803,-0.5
26.823,-0.5
26.843,-0.5
26.863,-0.5
26.883,-0.5
26.903,-0.5
26.923,-0.5
26.943,-0.5
26.963,-0.5
26.983,-0.5
27.003,-0.5
27.023,-0.5
27.043,-0.5
27.063,-0.5
27.083,-0.5
27.103,-0.5
27.123,-0.5
27.143,-0.5
27.163,-0.5
27.183,-0.5
27.203,-0.5
27.223,-0.5
27.243,-0.5
27.263,-0.5
27.283,-0.5
27.303,-0.5
27.323,-0.5
27.343,-0.5
27.363,-0.5
27.383,-0.5
27.403,-0.5
27.423,-0.5
27.443,-0.5
27.463,-0.5
27.483,-0.5
27.503,-0.5
27.523,-0.5
27.543,-0.5
27.563,-0.5
27.583,-0.5
27.603,-0.5
27.623,-0.5
27.643,-0.5
27.663,-0.5
27.683,-0.5
27.703,-0.5
27.723,-0.5
27.743,-0.5
27.763,-0.5
27.783,-0.5
27.803,-0.5
27.823,-0.5
27.843,-0.5
27.863,-0.5
27.883,-0.5
27.903,-0.5
27.923,-0.5
27.943,-0.5
27.963,-0.5
27.983,-0.5
28.003,-0.5
28.023,-0.5
28.043,-0.5
28.063,-0.5
28.083,-0.5
28.103,-0.5
28.123,-0.5
28.143,-0.5
28.163,-0.5
28.183,-0.5
28.203,-0.5
28.223,-0.5
28.243,-0.5
28.263,-0.5
28.283,-0.5
28.303,-0.5
28.323,-0.5
28.343,-0.5
28.363,-0.5
28.383,-0.5
28.403,-0.5
28.423,-0.5
28.443,-0.5
28.463,-0.5
28.483,-0.5
28.503,-0.5
28.523,-0.5
28.543,-0.5
28.563,-0.5
28.583,-0.5
28.603,-0.5
28.623,-0.5
28.643,-0.5
28.663,-0.5
28.683,-0.5
28.703,-0.5
28.723,-0.5
28.743,-0.5
28.763,-0.5
28.783,-0.5
28.803,-0.5
28.823,-0.5
28.843,-0.5
28.863,-0.5
28.883,-0.5
28.903,-0.5
28.923,-0.5
28.943,-0.5
28.963,-0.5
28.983,-0.5
29.003,-0.5
29.023,-0.5
29.043,-0.5
29.063,-0.5
29.083,-0.5
29.103,-0.5
29.123,-0.5
29.143,-0.5
29.163,-0.5
29.183,-0.5
29.203,-0.5
29.223,-0.5
29.243,-0.5
29.263,-0.5
29.283,-0.5
29.303,-0.5
29.323,-0.5
29.343,-0.5
29.363,-0.5
29.383,-0.5
29.403,-0.5
29.423,-0.5
29.443,-0.5
29.463,-0.5
29.483,-0.5
29.503,-0.5
29.523,-0.5
29.543,-0.5
29.563,-0.5
29.583,-0.5
29.603,-0.5
29.623,-0.5
29.643,-0.5
29.663,-0.5
29.683,-0.5
29.703,-0.5
29.723,-0.5
29.743,-0.5
29.763,-0.5
29.783,-0.5
29.803,-0.5
29.823,-0.5
29.843,-0.5
29.863,-0.5
29.883,-0.5
29.903,-0.5
29.923,-0.5
29.943,-0.5
29.963,-0.5
29.983,-0.5
30.003,-0.5
30.023,-0.5
30.043,-0.5
30.063,-0.5
30.083,-0.5
30.103,-0.5
30.123,-0.5
30.143,-0.5
30.163,-0.5
30.183,-0.5
30.203,-0.5
30.223,-0.5
30.243,-0.5
30.263,-0.5
30.283,-0.5
30.303,-0.5
30.323,-0.5
30.343,-0.5
30.363,-0.5
30.383,-0.5
30.403,-0.5
30.423,-0.5
30.443,-0.5
30.463,-0.5
30.483,-0.5
30.503,-0.5
30.523,-0.5
30.543,-0.5
30.563,-0.5
30.583,-0.5
30.603,-0.5
30.623,-0.5
30.643,-0.5
30.663,-0.5
30.683,-0.5
30.703,-0.5
30.723,-0.5
30.743,-0.5
30.763,-0.5
30.783,-0.5
30.803,-0.5
30.823,-0.5
30.843,-0.5
30.863,-0.5
30.883,-0.5
30.903,-0.5
30.923,-0.5
30.943,-0.5
30.963,-0.5
30.983,-0.5
31.003,-0.5
31.023,-0.5
31.043,-0.5
31.063,-0.5
31.083,-0.5
31.103,-0.5
31.123,-0.5
31.143,-0.5
31.163,-0.5
31.183,-0.5
31.203,-0.5
31.223,-0.5
31.243,-0.5
31.263,-0.5
31.283,-0.5
31.303,-0.5
31.323,-0.5
31.343,-0.5
31.363,-0.5
31.383,-0.5
31.403,-0.5
31.423,-0.5
31.443,-0.5
31.463,-0.5
31.483,-0.5
31.503,-0.5
31.523,-0.5
31.543,-0.5
31.563,-0.5
31.583,-0.5
31.603,-0.5
31.623,-0.5
31.643,-0.5
31.663,-0.5
31.683,-0.5
31.703,-0.5
31.723,-0.5
31.743,-0.5
31.763,-0.5
31.783,-0.5
31.803,-0.5
31.823,-0.5
31.843,-0.5
31.863,-0.5
31.883,-0.5
31.903,-0.5
31.923,-0.5
31.943,-0.5
31.963,-0.5
31.983,-0.5
32.003,-0.5
32.023,-0.5
32.043,-0.5
32.063,-0.5
32.083,-0.5
32.103,-0.5
32.123,-0.5
32.143,-0.5
32.163,-0.5
32.183,-0.5
32.203,-0.5
32.223,-0.5
32.243,-0.5
32.263,-0.5
32.283,-0.5
32.303,-0.5
32.323,-0.5
32.343,-0.5
32.363,-0.5
32.383,-0.5
32.403,-0.5
32.423,-0.5
32.443,-0.5
32.463,-0.5
32.483,-0.5
32.503,-0.5
32.523,-0.5
32.543,-0.5
32.563,-0.5
32.583,-0.5
32.603,-0.5
32.623,-0.5
32.643,-0.5
32.663,-0.5
32.683,-0.5
32.703,-0.5
32.723,-0.5
32.743,-0.5
32.763,-0.5
32.783,-0.5
32.803,-0.5
32.823,-0.5
32.843,-0.5
32.863,-0.5
32.883,-0.5
32.903,-0.5
32.923,-0.5
32.943,-0.5
32.963,-0.5
32.983,-0.5
33.003,-0.5
33.023,-0.5
33.043,-0.5
33.063,-0.5
33.083,-0.5
33.103,-0.5
33.123,-0.5
33.143,-0.5
33.163,-0.5
33.183,-0.5
33.203,-0.5
33.223,-0.5
33.243,-0.5
33.263,-0.5
33.283,-0.5
33.303,-0.5
33.323,-0.5
33.343,-0.5
33.363,-0.5
33.383,-0.5
33.403,-0.5
33.423,-0.5
33.443,-0.5
33.463,-0.5
33.483,-0.5
33.503,-0.5
33.523,-0.5
33.543,-0.5
33.563,-0.5
33.583,-0.5
33.603,-0.5
33.623,-0.5
33.643,-0.5
33.663,-0.5
33.683,-0.5
33.703,-0.5
33.723,-0.5
33.743,-0.5
33.763,-0.5
33.783,-0.5
33.803,-0.5
33.823,-0.5
33.843,-0.5
33.863,-0.5
33.883,-0.5
33.903,-0.5
33.923,-0.5
33.943,-0.5
33.963,-0.5
33.983,-0.5
34.003,-0.5
34.023,-0.5
34.043,-0.5
34.063,-0.5
34.083,-0.5
34.103,-0.5
34.123,-0.5
34.143,-0.5
34.163,-0.5
34.183,-0.5
34.203,-0.499999
34.223,-0.499999
34.243,-0.499998
34.263,-0.499998
34.283,-0.499996
34.303,-0.499994
34.323,-0.49999
34.343,-0.499984
34.363,-0.499974
34.383,-0.499959
34.403,-0.499936
34.423,-0.499901
34.443,-0.499848
34.463,-0.499767
34.483,-0.499645
34.503,-0.499463
34.523,-0.499193
34.543,-0.498793
34.563,-0.498206
34.583,-0.49735
34.603,-0.496109
34.623,-0.494321
34.643,-0.491762
34.663,-0.488122
34.683,-0.482976
34.703,-0.475748
34.723,-0.465658
34.743,-0.451663
34.763,-0.432375
34.783,-0.405959
34.803,-0.370013
34.823,-0.321407
34.843,-0.256103
34.863,-0.168925
34.883,-0.0532922
34.903,0.0990997
34.923,0.298643
34.943,0.558241
34.963,0.89378
34.983,1.32466
35.003,1.87437
35.023,2.57108
35.043,3.44833
35.063,4.5456
35.083,5.90901
35.103,7.59183
35.123,9.65502
35.143,12.1676
35.163,15.2066
35.183,18.8576
35.203,23.2136
35.223,28.375
35.243,34.4481
35.263,41.544
35.283,49.7761
35.303,59.2583
35.323,70.1013
35.343,82.4096
35.363,96.2777
35.383,111.785
35.403,128.994
35.423,147.941
35.443,168.636
35.463,191.057
35.483,215.143
35.503,240.797
35.523,267.878
35.543,296.202
35.563,325.54
35.583,355.622
35.603,386.139
35.623,416.745
35.643,447.063
35.663,476.694
35.683,505.224
35.703,532.234
35.723,557.309
35.743,580.048
35.763,600.078
35.783,617.059
35.803,630.698
35.823,640.755
35.843,647.051
35.863,649.473
35.883,647.976
35.903,642.59
35.923,633.409
35.943,620.598
35.963,604.383
35.983,585.046
36.003,562.915
36.023,538.357
36.043,511.768
36.063,483.559
36.083,454.151
36.103,423.959
36.123,393.387
36.143,362.817
36.163,332.602
36.183,303.061
36.203,274.476
36.223,247.083
36.243,221.077
36.263,196.609
36.283,173.787
36.303,152.681
36.323,133.32
36.343,115.702
36.363,99.7964
36.383,85.547
36.403,72.8776
36.423,61.697
36.443,51.9027
36.463,43.385
36.483,36.0306
36.503,29.7256
36.523,24.3583
36.543,19.821
36.563,16.0119
36.583,12.8361
36.603,10.2062
36.623,8.04324
36.643,6.27622
36.663,4.84232
36.683,3.68649
36.703,2.76099
36.723,2.02479
36.743,1.44303
36.763,0.986321
36.783,0.630117
36.803,0.354107
36.823,0.141622
36.843,-0.0209026
36.863,-0.144412
36.883,-0.23767
36.903,-0.307635
36.923,-0.359789
36.943,-0.398418
36.963,-0.426847
36.983,-0.447637
37.003,-0.462744
37.023,-0.473653
37.043,-0.481479
37.063,-0.487059
37.083,-0.491012
37.103,-0.493795
37.123,-0.495743
37.143,-0.497096
37.163,-0.498031
37.183,-0.498673
37.203,-0.499111
37.223,-0.499408
37.243,-0.499609
37.263,-0.496221
37.283,10.3952
37.303,616.816
37.323,640.132
37.343,11.6768
37.363,-0.495732
37.383,-0.499982
37.403,-0.499988
37.423,-0.499993
37.443,-0.499995
37.463,-0.499997
37.483,-0.499998
37.503,-0.499999
37.523,-0.499999
37.543,-0.5
37.563,-0.5
37.583,-0.5
37.603,-0.5
37.623,-0.5
37.643,-0.5
37.663,-0.5
37.683,-0.5
37.703,-0.5
37.723,-0.5
37.743,-0.5
37.763,-0.5
37.783,-0.5
37.803,-0.5
37.823,-0.5
37.843,-0.5
37.863,-0.5
37.883,-0.5
37.903,-0.5
37.923,-0.5
37.943,-0.5
37.963,-0.5
37.983,-0.5
38.003,-0.5
38.023,-0.5
38.043,-0.5
38.063,-0.5
38.083,-0.5
38.103,-0.5
38.123,-0.5
38.143,-0.5
38.163,-0.5
38.183,-0.5
38.203,-0.5
38.223,-0.5
38.243,-0.5
38.263,-0.5
38.283,-0.5
38.303,-0.5
38.323,-0.5
38.343,-0.5
38.363,-0.5
38.383,-0.5
38.403,-0.5
38.423,-0.5
38.443,-0.5
38.463,-0.5
38.483,-0.5
38.503,-0.5
38.523,-0.5
38.543,-0.5
38.563,-0.5
38.583,-0.5
38.603,-0.5
38.623,-0.5
38.643,-0.5
38.663,-0.5
38.683,-0.5
38.703,-0.5
38.723,-0.5
38.743,-0.5
38.763,-0.5
38.783,-0.5
38.803,-0.5
38.823,-0.5
38.843,-0.5
38.863,-0.5
38.883,-0.5
38.903,-0.5
38.923,-0.5
38.943,-0.5
38.963,-0.5
38.983,-0.5
39.003,-0.5
39.023,-0.5
39.043,-0.5
39.063,-0.5
39.083,-0.5
39.103,-0.5
39.123,-0.5
39.143,-0.5
39.163,-0.5
39.183,-0.5
39.203,-0.5
39.223,-0.5
39.243,-0.5
39.263,-0.5
39.283,-0.5
39.293,-0.5