File: sun_1994/xrd_sic_no_anneal/curve_2_fit.dat
14.943,0.0
14.963,0.0
14.983,0.0
15.003,0.0
15.023,0.0
15.043,0.0
15.063,0.0
15.083,0.0
15.103,0.0
15.123,0.0
15.143,0.0
15.163,0.0
15.183,0.0
15.203,0.0
15.223,0.0
15.243,0.0
15.263,0.0
15.283,0.0
15.303,0.0
15.323,0.0
15.343,0.0
15.363,0.0
15.383,0.0
15.403,0.0
15.423,0.0
15.443,0.0
15.463,0.0
15.483,0.0
15.503,0.0
15.523,0.0
15.543,0.0
15.563,0.0
15.583,0.0
15.603,0.0
15.623,0.0
15.643,0.0
15.663,0.0
15.683,0.0
15.703,0.0
15.723,0.0
15.743,0.0
15.763,0.0
15.783,0.0
15.803,0.0
15.823,0.0
15.843,0.0
15.863,0.0
15.883,0.0
15.903,0.0
15.923,0.0
15.943,0.0
15.963,0.0
15.983,0.0
16.003,0.0
16.023,0.0
16.043,0.0
16.063,0.0
16.083,0.0
16.103,0.0
16.123,0.0
16.143,0.0
16.163,0.0
16.183,0.0
16.203,0.0
16.223,0.0
16.243,0.0
16.263,0.0
16.283,0.0
16.303,0.0
16.323,0.0
16.343,0.0
16.363,0.0
16.383,0.0
16.403,0.0
16.423,0.0
16.443,0.0
16.463,0.0
16.483,0.0
16.503,0.0
16.523,0.0
16.543,0.0
16.563,0.0
16.583,0.0
16.603,0.0
16.623,0.0
16.643,0.0
16.663,0.0
16.683,0.0
16.703,0.0
16.723,0.0
16.743,0.0
16.763,0.0
16.783,0.0
16.803,0.0
16.823,0.0
16.843,0.0
16.863,0.0
16.883,0.0
16.903,0.0
16.923,0.0
16.943,0.0
16.963,0.0
16.983,0.0
17.003,0.0
17.023,0.0
17.043,0.0
17.063,0.0
17.083,0.0
17.103,0.0
17.123,0.0
17.143,0.0
17.163,0.0
17.183,0.0
17.203,0.0
17.223,0.0
17.243,0.0
17.263,0.0
17.283,0.0
17.303,0.0
17.323,0.0
17.343,0.0
17.363,0.0
17.383,0.0
17.403,0.0
17.423,0.0
17.443,0.0
17.463,0.0
17.483,0.0
17.503,0.0
17.523,0.0
17.543,0.0
17.563,0.0
17.583,0.0
17.603,0.0
17.623,0.0
17.643,0.0
17.663,0.0
17.683,0.0
17.703,0.0
17.723,0.0
17.743,0.0
17.763,0.0
17.783,0.0
17.803,0.0
17.823,0.0
17.843,0.0
17.863,0.0
17.883,0.0
17.903,0.0
17.923,0.0
17.943,0.0
17.963,0.0
17.983,0.0
18.003,0.0
18.023,0.0
18.043,0.0
18.063,0.0
18.083,0.0
18.103,0.0
18.123,0.0
18.143,0.0
18.163,0.0
18.183,0.0
18.203,0.0
18.223,0.0
18.243,0.0
18.263,0.0
18.283,0.0
18.303,0.0
18.323,0.0
18.343,0.0
18.363,0.0
18.383,0.0
18.403,0.0
18.423,0.0
18.443,0.0
18.463,0.0
18.483,0.0
18.503,0.0
18.523,0.0
18.543,0.0
18.563,0.0
18.583,0.0
18.603,0.0
18.623,0.0
18.643,0.0
18.663,0.0
18.683,0.0
18.703,0.0
18.723,0.0
18.743,0.0
18.763,0.0
18.783,0.0
18.803,0.0
18.823,0.0
18.843,0.0
18.863,0.0
18.883,0.0
18.903,0.0
18.923,0.0
18.943,0.0
18.963,0.0
18.983,0.0
19.003,0.0
19.023,0.0
19.043,0.0
19.063,0.0
19.083,0.0
19.103,0.0
19.123,0.0
19.143,0.0
19.163,0.0
19.183,0.0
19.203,0.0
19.223,0.0
19.243,0.0
19.263,0.0
19.283,0.0
19.303,0.0
19.323,0.0
19.343,0.0
19.363,0.0
19.383,0.0
19.403,0.0
19.423,0.0
19.443,0.0
19.463,0.0
19.483,0.0
19.503,0.0
19.523,0.0
19.543,0.0
19.563,0.0
19.583,0.0
19.603,0.0
19.623,0.0
19.643,0.0
19.663,0.0
19.683,0.0
19.703,0.0
19.723,0.0
19.743,0.0
19.763,0.0
19.783,0.0
19.803,0.0
19.823,0.0
19.843,0.0
19.863,0.0
19.883,0.0
19.903,0.0
19.923,0.0
19.943,0.0
19.963,0.0
19.983,0.0
20.003,0.0
20.023,0.0
20.043,0.0
20.063,0.0
20.083,0.0
20.103,0.0
20.123,0.0
20.143,0.0
20.163,0.0
20.183,0.0
20.203,0.0
20.223,0.0
20.243,0.0
20.263,0.0
20.283,0.0
20.303,0.0
20.323,0.0
20.343,0.0
20.363,0.0
20.383,0.0
20.403,0.0
20.423,0.0
20.443,0.0
20.463,0.0
20.483,0.0
20.503,0.0
20.523,0.0
20.543,0.0
20.563,0.0
20.583,0.0
20.603,0.0
20.623,0.0
20.643,0.0
20.663,0.0
20.683,0.0
20.703,0.0
20.723,0.0
20.743,0.0
20.763,0.0
20.783,0.0
20.803,0.0
20.823,0.0
20.843,0.0
20.863,0.0
20.883,0.0
20.903,0.0
20.923,0.0
20.943,0.0
20.963,0.0
20.983,0.0
21.003,0.0
21.023,0.0
21.043,0.0
21.063,0.0
21.083,0.0
21.103,0.0
21.123,0.0
21.143,0.0
21.163,0.0
21.183,0.0
21.203,0.0
21.223,0.0
21.243,0.0
21.263,0.0
21.283,0.0
21.303,0.0
21.323,0.0
21.343,0.0
21.363,0.0
21.383,0.0
21.403,0.0
21.423,0.0
21.443,0.0
21.463,0.0
21.483,0.0
21.503,0.0
21.523,0.0
21.543,0.0
21.563,0.0
21.583,0.0
21.603,0.0
21.623,0.0
21.643,0.0
21.663,0.0
21.683,0.0
21.703,0.0
21.723,0.0
21.743,0.0
21.763,0.0
21.783,0.0
21.803,0.0
21.823,0.0
21.843,0.0
21.863,0.0
21.883,0.0
21.903,0.0
21.923,0.0
21.943,0.0
21.963,0.0
21.983,0.0
22.003,0.0
22.023,0.0
22.043,0.0
22.063,0.0
22.083,0.0
22.103,0.0
22.123,0.0
22.143,0.0
22.163,0.0
22.183,0.0
22.203,0.0
22.223,0.0
22.243,0.0
22.263,0.0
22.283,0.0
22.303,0.0
22.323,0.0
22.343,0.0
22.363,0.0
22.383,0.0
22.403,0.0
22.423,0.0
22.443,0.0
22.463,0.0
22.483,0.0
22.503,0.0
22.523,0.0
22.543,0.0
22.563,0.0
22.583,0.0
22.603,0.0
22.623,0.0
22.643,0.0
22.663,0.0
22.683,0.0
22.703,0.0
22.723,0.0
22.743,0.0
22.763,0.0
22.783,0.0
22.803,0.0
22.823,0.0
22.843,0.0
22.863,0.0
22.883,0.0
22.903,0.0
22.923,0.0
22.943,0.0
22.963,0.0
22.983,0.0
23.003,0.0
23.023,0.0
23.043,0.0
23.063,0.0
23.083,0.0
23.103,0.0
23.123,0.0
23.143,0.0
23.163,0.0
23.183,0.0
23.203,0.0
23.223,0.0
23.243,0.0
23.263,0.0
23.283,0.0
23.303,0.0
23.323,0.0
23.343,0.0
23.363,0.0
23.383,0.0
23.403,0.0
23.423,0.0
23.443,0.0
23.463,0.0
23.483,0.0
23.503,0.0
23.523,0.0
23.543,0.0
23.563,0.0
23.583,0.0
23.603,0.0
23.623,0.0
23.643,0.0
23.663,0.0
23.683,0.0
23.703,0.0
23.723,0.0
23.743,0.0
23.763,0.0
23.783,0.0
23.803,0.0
23.823,0.0
23.843,0.0
23.863,0.0
23.883,0.0
23.903,0.0
23.923,0.0
23.943,0.0
23.963,0.0
23.983,0.0
24.003,0.0
24.023,0.0
24.043,0.0
24.063,0.0
24.083,0.0
24.103,0.0
24.123,0.0
24.143,0.0
24.163,0.0
24.183,0.0
24.203,0.0
24.223,0.0
24.243,0.0
24.263,0.0
24.283,0.0
24.303,0.0
24.323,0.0
24.343,0.0
24.363,0.0
24.383,0.0
24.403,0.0
24.423,0.0
24.443,0.0
24.463,0.0
24.483,0.0
24.503,0.0
24.523,0.0
24.543,0.0
24.563,0.0
24.583,0.0
24.603,0.0
24.623,0.0
24.643,0.0
24.663,0.0
24.683,0.0
24.703,0.0
24.723,0.0
24.743,0.0
24.763,0.0
24.783,0.0
24.803,0.0
24.823,0.0
24.843,0.0
24.863,0.0
24.883,0.0
24.903,0.0
24.923,0.0
24.943,0.0
24.963,0.0
24.983,0.0
25.003,0.0
25.023,0.0
25.043,0.0
25.063,0.0
25.083,0.0
25.103,0.0
25.123,0.0
25.143,0.0
25.163,0.0
25.183,0.0
25.203,0.0
25.223,0.0
25.243,0.0
25.263,0.0
25.283,0.0
25.303,0.0
25.323,0.0
25.343,0.0
25.363,0.0
25.383,0.0
25.403,0.0
25.423,0.0
25.443,0.0
25.463,0.0
25.483,0.0
25.503,0.0
25.523,0.0
25.543,0.0
25.563,0.0
25.583,0.0
25.603,0.0
25.623,0.0
25.643,0.0
25.663,0.0
25.683,0.0
25.703,0.0
25.723,0.0
25.743,0.0
25.763,0.0
25.783,0.0
25.803,0.0
25.823,0.0
25.843,0.0
25.863,0.0
25.883,0.0
25.903,0.0
25.923,0.0
25.943,1.2846e-320
25.963,2.7297e-319
25.983,5.40162e-318
26.003,1.0635e-316
26.023,2.08145e-315
26.043,4.04924e-314
26.063,7.82993e-313
26.083,1.50495e-311
26.103,2.87516e-310
26.123,5.45986e-309
26.143,1.03057e-307
26.163,1.93354e-306
26.183,3.60584e-305
26.203,6.68402e-304
26.223,1.23154e-302
26.243,2.25546e-301
26.263,4.10582e-300
26.283,7.42922e-299
26.303,1.33618e-297
26.323,2.38871e-296
26.343,4.24465e-295
26.363,7.49717e-294
26.383,1.31623e-292
26.403,2.2969e-291
26.423,3.98412e-290
26.443,6.86909e-289
26.463,1.17719e-287
26.483,2.00525e-286
26.503,3.39524e-285
26.523,5.71413e-284
26.543,9.55891e-283
26.563,1.58944e-281
26.583,2.62699e-280
26.603,4.31569e-279
26.623,7.04725e-278
26.643,1.14385e-276
26.663,1.84541e-275
26.683,2.95936e-274
26.703,4.71715e-273
26.723,7.47377e-272
26.743,1.177e-270
26.763,1.84244e-269
26.783,2.86674e-268
26.803,4.43364e-267
26.823,6.81571e-266
26.843,1.04145e-264
26.863,1.58178e-263
26.883,2.38798e-262
26.903,3.58338e-261
26.923,5.34482e-260
26.943,7.92412e-259
26.963,1.16774e-257
26.983,1.7105e-256
27.003,2.49043e-255
27.023,3.60417e-254
27.043,5.18458e-253
27.063,7.41311e-252
27.083,1.05357e-250
27.103,1.48836e-249
27.123,2.08992e-248
27.143,2.91694e-247
27.163,4.04673e-246
27.183,5.58032e-245
27.203,7.64878e-244
27.223,1.04208e-242
27.243,1.41121e-241
27.263,1.89959e-240
27.283,2.54158e-239
27.303,3.38008e-238
27.323,4.46815e-237
27.343,5.87094e-236
27.363,7.66769e-235
27.383,9.95405e-234
27.403,1.28444e-232
27.423,1.64742e-231
27.443,2.10026e-230
27.463,2.66146e-229
27.483,3.35232e-228
27.503,4.1971e-227
27.523,5.22313e-226
27.543,6.46086e-225
27.563,7.94379e-224
27.583,9.7083e-223
27.603,1.17933e-221
27.623,1.424e-220
27.643,1.70906e-219
27.663,2.03885e-218
27.683,2.41764e-217
27.703,2.84954e-216
27.723,3.33839e-215
27.743,3.88756e-214
27.763,4.49981e-213
27.783,5.17715e-212
27.803,5.92058e-211
27.823,6.73002e-210
27.843,7.60407e-209
27.863,8.53993e-208
27.883,9.53323e-207
27.903,1.0578e-205
27.923,1.16667e-204
27.943,1.27899e-203
27.963,1.39368e-202
27.983,1.50953e-201
28.003,1.62516e-200
28.023,1.73911e-199
28.043,1.84985e-198
28.063,1.95581e-197
28.083,2.05538e-196
28.103,2.14702e-195
28.123,2.22925e-194
28.143,2.3007e-193
28.163,2.36014e-192
28.183,2.40655e-191
28.203,2.4391e-190
28.223,2.45721e-189
28.243,2.46055e-188
28.263,2.44907e-187
28.283,2.42297e-186
28.303,2.38271e-185
28.323,2.32903e-184
28.343,2.26285e-183
28.363,2.18532e-182
28.383,2.09774e-181
28.403,2.00155e-180
28.423,1.89827e-179
28.443,1.78949e-178
28.463,1.67679e-177
28.483,1.56173e-176
28.503,1.44581e-175
28.523,1.33044e-174
28.543,1.2169e-173
28.563,1.10635e-172
28.583,9.99796e-172
28.603,8.98063e-171
28.623,8.01825e-170
28.643,7.11592e-169
28.663,6.27712e-168
28.683,5.50386e-167
28.703,4.79682e-166
28.723,4.15544e-165
28.743,3.57815e-164
28.763,3.06251e-163
28.783,2.6054e-162
28.803,2.20318e-161
28.823,1.85184e-160
28.843,1.54716e-159
28.863,1.28483e-158
28.883,1.06055e-157
28.903,8.70159e-157
28.923,7.09647e-156
28.943,5.7526e-155
28.963,4.63515e-154
28.983,3.71229e-153
29.003,2.95527e-152
29.023,2.33847e-151
29.043,1.83926e-150
29.063,1.43792e-149
29.083,1.11738e-148
29.103,8.63073e-148
29.123,6.62631e-147
29.143,5.05677e-146
29.163,3.83578e-145
29.183,2.89209e-144
29.203,2.16744e-143
29.223,1.61459e-142
29.243,1.19551e-141
29.263,8.79883e-141
29.283,6.43685e-140
29.303,4.68058e-139
29.323,3.38301e-138
29.343,2.43045e-137
29.363,1.73559e-136
29.383,1.23193e-135
29.403,8.69164e-135
29.423,6.09532e-134
29.443,4.24883e-133
29.463,2.94388e-132
29.483,2.02744e-131
29.503,1.38789e-130
29.523,9.44364e-130
29.543,6.38708e-129
29.563,4.29381e-128
29.583,2.86921e-127
29.603,1.90572e-126
29.623,1.25815e-125
29.643,8.25632e-125
29.663,5.3854e-124
29.683,3.49162e-123
29.703,2.25016e-122
29.723,1.44138e-121
29.743,9.17744e-121
29.763,5.80822e-120
29.783,3.65378e-119
29.803,2.28465e-118
29.823,1.41995e-117
29.843,8.77218e-117
29.863,5.38665e-116
29.883,3.28782e-115
29.903,1.99469e-114
29.923,1.20288e-113
29.943,7.21015e-113
29.963,4.29582e-112
29.983,2.54405e-111
30.003,1.49756e-110
30.023,8.76231e-110
30.043,5.09603e-109
30.063,2.94594e-108
30.083,1.69275e-107
30.103,9.6681e-107
30.123,5.48866e-106
30.143,3.09721e-105
30.163,1.73721e-104
30.183,9.68528e-104
30.203,5.36723e-103
30.223,2.95642e-102
30.243,1.61867e-101
30.263,8.8091e-101
30.283,4.7652e-100
30.303,2.56218e-99
30.323,1.36935e-98
30.343,7.27444e-98
30.363,3.84115e-97
30.383,2.01605e-96
30.403,1.05177e-95
30.423,5.45401e-95
30.443,2.81119e-94
30.463,1.44027e-93
30.483,7.33454e-93
30.503,3.71263e-92
30.523,1.86796e-91
30.543,9.34184e-91
30.563,4.64381e-90
30.583,2.29454e-89
30.603,1.12692e-88
30.623,5.50136e-88
30.643,2.66947e-87
30.663,1.28753e-86
30.683,6.1726e-86
30.703,2.94142e-85
30.723,1.39323e-84
30.743,6.55946e-84
30.763,3.06966e-83
30.783,1.42788e-82
30.803,6.60192e-82
30.823,3.03408e-81
30.843,1.386e-80
30.863,6.29325e-80
30.883,2.84031e-79
30.903,1.27419e-78
30.923,5.68175e-78
30.943,2.5183e-77
30.963,1.10946e-76
30.983,4.85838e-76
31.003,2.11471e-75
31.023,9.1493e-75
31.043,3.93462e-74
31.063,1.68189e-73
31.083,7.14608e-73
31.103,3.01798e-72
31.123,1.26691e-71
31.143,5.28628e-71
31.163,2.19247e-70
31.183,9.03847e-70
31.203,3.70369e-69
31.223,1.50852e-68
31.243,6.10727e-68
31.263,2.45765e-67
31.283,9.83043e-67
31.303,3.90843e-66
31.323,1.54458e-65
31.343,6.0673e-65
31.363,2.36897e-64
31.383,9.19393e-64
31.403,3.54667e-63
31.423,1.35994e-62
31.443,5.18316e-62
31.463,1.96358e-61
31.483,7.39402e-61
31.503,2.76752e-60
31.523,1.02962e-59
31.543,3.80754e-59
31.563,1.39955e-58
31.583,5.11341e-58
31.603,1.857e-57
31.623,6.70331e-57
31.643,2.40517e-56
31.663,8.57788e-56
31.683,3.04083e-55
31.703,1.07148e-54
31.723,3.75276e-54
31.743,1.30646e-53
31.763,4.52086e-53
31.783,1.55498e-52
31.803,5.31624e-52
31.823,1.8066e-51
31.843,6.10238e-51
31.863,2.04887e-50
31.883,6.83765e-50
31.903,2.26818e-49
31.923,7.4787e-49
31.943,2.45105e-48
31.963,7.98468e-48
31.983,2.58547e-47
32.003,8.32149e-47
32.023,2.6622e-46
32.043,8.46558e-46
32.063,2.67579e-45
32.083,8.40668e-45
32.103,2.62528e-44
32.123,8.14901e-44
32.143,2.51427e-43
32.163,7.71075e-43
32.183,2.3505e-42
32.203,7.12199e-42
32.223,2.14497e-41
32.243,6.42122e-41
32.263,1.9107e-40
32.283,5.65127e-40
32.303,1.66141e-39
32.323,4.85497e-39
32.343,1.41018e-38
32.363,4.07136e-38
32.383,1.16838e-37
32.403,3.33276e-37
32.423,9.44939e-37
32.443,2.66306e-36
32.463,7.45997e-36
32.483,2.07716e-35
32.503,5.74887e-35
32.523,1.58151e-34
32.543,4.32454e-34
32.563,1.1754e-33
32.583,3.17548e-33
32.603,8.52729e-33
32.623,2.2761e-32
32.643,6.03877e-32
32.663,1.59252e-31
32.683,4.17444e-31
32.703,1.08765e-30
32.723,2.81683e-30
32.743,7.25118e-30
32.763,1.85539e-29
32.783,4.71888e-29
32.803,1.19295e-28
32.823,2.99765e-28
32.843,7.4872e-28
32.863,1.85881e-27
32.883,4.58701e-27
32.903,1.12513e-26
32.923,2.74317e-26
32.943,6.64784e-26
32.963,1.60135e-25
32.983,3.83417e-25
33.003,9.12502e-25
33.023,2.15861e-24
33.043,5.07567e-24
33.063,1.18629e-23
33.083,2.75591e-23
33.103,6.36381e-23
33.123,1.46065e-22
33.143,3.33239e-22
33.163,7.55689e-22
33.183,1.70337e-21
33.203,3.81637e-21
33.223,8.49907e-21
33.243,1.88135e-20
33.263,4.13949e-20
33.283,9.0532e-20
33.303,1.96805e-19
33.323,4.25252e-19
33.343,9.13345e-19
33.363,1.94985e-18
33.383,4.13759e-18
33.403,8.72711e-18
33.423,1.82966e-17
33.443,3.81286e-17
33.463,7.89783e-17
33.483,1.62608e-16
33.503,3.32779e-16
33.523,6.76936e-16
33.543,1.36873e-15
33.563,2.75084e-15
33.583,5.49528e-15
33.603,1.09117e-14
33.623,2.15365e-14
33.643,4.22508e-14
33.663,8.23895e-14
33.683,1.59694e-13
33.703,3.07667e-13
33.723,5.89187e-13
33.743,1.12151e-12
33.763,2.12193e-12
33.783,3.99058e-12
33.803,7.45967e-12
33.823,1.38606e-11
33.843,2.55989e-11
33.863,4.69937e-11
33.883,8.57502e-11
33.903,1.55528e-10
33.923,2.80389e-10
33.943,5.02448e-10
33.963,8.94951e-10
33.983,1.58448e-09
34.003,2.78836e-09
34.023,4.87744e-09
34.043,8.48031e-09
34.063,1.46558e-08
34.083,2.5176e-08
34.103,4.29873e-08
34.123,7.2958e-08
34.143,1.23079e-07
34.163,2.06382e-07
34.183,3.43984e-07
34.203,5.69879e-07
34.223,9.38437e-07
34.243,1.53605e-06
34.263,2.4991e-06
34.283,4.04148e-06
34.303,6.49644e-06
34.323,1.03798e-05
34.343,1.64846e-05
34.363,2.60224e-05
34.383,4.08314e-05
34.403,6.36823e-05
34.423,9.87238e-05
34.443,0.000152126
34.463,0.000233003
34.483,0.00035473
34.503,0.000536801
34.523,0.000807433
34.543,0.00120719
34.563,0.00179402
34.583,0.00265005
34.603,0.00389098
34.623,0.0056786
34.643,0.00823764
34.663,0.011878
34.683,0.0170239
34.703,0.0242524
34.723,0.0343422
34.743,0.0483369
34.763,0.0676252
34.783,0.0940407
34.803,0.129987
34.823,0.178593
34.843,0.243897
34.863,0.331075
34.883,0.446708
34.903,0.5991
34.923,0.798643
34.943,1.05824
34.963,1.39378
34.983,1.82466
35.003,2.37437
35.023,3.07108
35.043,3.94833
35.063,5.0456
35.083,6.40901
35.103,8.09183
35.123,10.155
35.143,12.6676
35.163,15.7066
35.183,19.3576
35.203,23.7136
35.223,28.875
35.243,34.9481
35.263,42.044
35.283,50.2761
35.303,59.7583
35.323,70.6013
35.343,82.9096
35.363,96.7777
35.383,112.285
35.403,129.494
35.423,148.441
35.443,169.136
35.463,191.557
35.483,215.643
35.503,241.297
35.523,268.378
35.543,296.702
35.563,326.04
35.583,356.122
35.603,386.639
35.623,417.245
35.643,447.563
35.663,477.194
35.683,505.724
35.703,532.734
35.723,557.809
35.743,580.548
35.763,600.578
35.783,617.559
35.803,631.198
35.823,641.255
35.843,647.551
35.863,649.973
35.883,648.476
35.903,643.09
35.923,633.909
35.943,621.098
35.963,604.883
35.983,585.546
36.003,563.415
36.023,538.857
36.043,512.268
36.063,484.059
36.083,454.651
36.103,424.459
36.123,393.887
36.143,363.317
36.163,333.102
36.183,303.561
36.203,274.976
36.223,247.583
36.243,221.577
36.263,197.109
36.283,174.287
36.303,153.181
36.323,133.82
36.343,116.202
36.363,100.296
36.383,86.047
36.403,73.3776
36.423,62.197
36.443,52.4027
36.463,43.885
36.483,36.5306
36.503,30.2256
36.523,24.8583
36.543,20.321
36.563,16.5119
36.583,13.3361
36.603,10.7062
36.623,8.54324
36.643,6.77622
36.663,5.34232
36.683,4.18649
36.703,3.26099
36.723,2.52479
36.743,1.94303
36.763,1.48632
36.783,1.13012
36.803,0.854107
36.823,0.641622
36.843,0.479097
36.863,0.355588
36.883,0.26233
36.903,0.192365
36.923,0.140211
36.943,0.101582
36.963,0.0731529
36.983,0.0523627
37.003,0.0372556
37.023,0.0263474
37.043,0.018521
37.063,0.012941
37.083,0.00898769
37.103,0.00620451
37.123,0.0042574
37.143,0.00290375
37.163,0.00196858
37.183,0.00132655
37.203,0.000888534
37.223,0.000591564
37.243,0.000391478
37.263,0.000257508
37.283,0.000168365
37.303,0.000109419
37.323,7.0682e-05
37.343,4.53842e-05
37.363,2.89653e-05
37.383,1.83751e-05
37.403,1.15867e-05
37.423,7.26219e-06
37.443,4.52432e-06
37.463,2.80167e-06
37.483,1.72448e-06
37.503,1.05506e-06
37.523,6.41619e-07
37.543,3.8784e-07
37.563,2.33027e-07
37.583,1.39168e-07
37.603,8.26131e-08
37.623,4.87458e-08
37.643,2.85893e-08
37.663,1.66666e-08
37.683,9.65761e-09
37.703,5.5625e-09
37.723,3.18455e-09
37.743,1.81219e-09
37.763,1.02503e-09
37.783,5.76303e-10
37.803,3.22063e-10
37.823,1.789e-10
37.843,9.87771e-11
37.863,5.42102e-11
37.883,2.95722e-11
37.903,1.60348e-11
37.923,8.64216e-12
37.943,4.62977e-12
37.963,2.46532e-12
37.983,1.30487e-12
38.003,6.86495e-13
38.023,3.58993e-13
38.043,1.866e-13
38.063,9.6409e-14
38.083,4.95109e-14
38.103,2.52733e-14
38.123,1.28233e-14
38.143,6.46721e-15
38.163,3.24199e-15
38.183,1.61542e-15
38.203,8.00085e-16
38.223,3.93881e-16
38.243,1.9274e-16
38.263,9.3747e-17
38.283,4.53232e-17
38.303,2.17802e-17
38.323,1.04035e-17
38.343,4.93945e-18
38.363,2.33106e-18
38.383,1.09347e-18
38.403,5.09846e-19
38.423,2.36291e-19
38.443,1.08852e-19
38.463,4.98426e-20
38.483,2.26853e-20
38.503,1.02628e-20
38.523,4.61494e-21
38.543,2.06273e-21
38.563,9.16429e-22
38.583,4.04699e-22
38.603,1.77641e-22
38.623,7.75058e-23
38.643,3.36126e-23
38.663,1.44893e-23
38.683,6.20828e-24
38.703,2.64407e-24
38.723,1.11932e-24
38.743,4.70989e-25
38.763,1.96991e-25
38.783,8.18957e-26
38.803,3.38418e-26
38.823,1.39003e-26
38.843,5.67507e-27
38.863,2.30302e-27
38.883,9.2897e-28
38.903,3.72464e-28
38.923,1.48438e-28
38.943,5.88007e-29
38.963,2.31525e-29
38.983,9.06135e-30
39.003,3.52505e-30
39.023,1.36306e-30
39.043,5.23895e-31
39.063,2.00148e-31
39.083,7.60038e-32
39.103,2.86878e-32
39.123,1.07631e-32
39.143,4.01381e-33
39.163,1.48783e-33
39.183,5.48187e-34
39.203,2.00762e-34
39.223,7.30822e-35
39.243,2.64436e-35
39.263,9.51059e-36
39.283,3.39995e-36
39.293,2.02825e-36