File: sun_1994/xrd_sic_no_anneal/curve_1_fit.dat
14.943,0.000756215
14.963,0.00109934
14.983,0.00159107
15.003,0.00229254
15.023,0.00328861
15.043,0.00469655
15.063,0.00667752
15.083,0.00945194
15.103,0.0133198
15.123,0.0186871
15.143,0.026101
15.163,0.0362946
15.183,0.0502455
15.203,0.0692504
15.223,0.0950204
15.243,0.129802
15.263,0.176529
15.283,0.239012
15.303,0.322176
15.323,0.432351
15.343,0.57763
15.363,0.768304
15.383,1.01739
15.403,1.34125
15.423,1.76036
15.443,2.30019
15.463,2.99223
15.483,3.87523
15.503,4.99654
15.523,6.41373
15.543,8.19638
15.563,10.4281
15.583,13.2085
15.603,16.6562
15.623,20.9106
15.643,26.1352
15.663,32.5204
15.683,40.2862
15.703,49.6851
15.723,61.005
15.743,74.5719
15.763,90.7516
15.783,109.952
15.803,132.624
15.823,159.261
15.843,190.401
15.863,226.619
15.883,268.531
15.903,316.784
15.923,372.049
15.943,435.019
15.963,506.39
15.983,586.857
16.003,677.094
16.023,777.742
16.043,889.39
16.063,1012.55
16.083,1147.66
16.103,1295.03
16.123,1454.84
16.143,1627.13
16.163,1811.74
16.183,2008.36
16.203,2216.44
16.223,2435.24
16.243,2663.76
16.263,2900.81
16.283,3144.95
16.303,3394.51
16.323,3647.63
16.343,3902.25
16.363,4156.12
16.383,4406.88
16.403,4652.04
16.423,4889.07
16.443,5115.39
16.463,5328.45
16.483,5525.78
16.503,5704.99
16.523,5863.9
16.543,6000.51
16.563,6113.07
16.583,6200.13
16.603,6260.54
16.623,6293.5
16.643,6299.37
16.663,6289.19
16.683,6266.64
16.703,6231.85
16.723,6185.03
16.743,6126.44
16.763,6056.43
16.783,5975.4
16.803,5883.83
16.823,5782.23
16.843,5671.16
16.863,5551.26
16.883,5423.16
16.903,5287.57
16.923,5145.2
16.943,4996.77
16.963,4843.06
16.983,4684.81
17.003,4522.79
17.023,4357.75
17.043,4190.45
17.063,4021.62
17.083,3851.98
17.103,3682.21
17.123,3512.98
17.143,3344.91
17.163,3178.6
17.183,3014.6
17.203,2853.42
17.223,2695.52
17.243,2541.34
17.263,2391.25
17.283,2245.58
17.303,2104.63
17.323,1968.63
17.343,1837.78
17.363,1712.25
17.383,1592.14
17.403,1477.54
17.423,1368.48
17.443,1264.96
17.463,1166.97
17.483,1074.45
17.503,987.312
17.523,905.449
17.543,828.735
17.563,757.024
17.583,690.154
17.603,627.949
17.623,570.223
17.643,516.782
17.663,467.425
17.683,421.947
17.703,380.143
17.723,341.805
17.743,306.727
17.763,274.705
17.783,245.541
17.803,219.04
17.823,195.014
17.843,173.28
17.863,153.665
17.883,136.001
17.903,120.131
17.923,105.902
17.943,93.1752
17.963,81.8158
17.983,71.6995
18.003,62.71
18.023,54.7394
18.043,47.6876
18.063,41.4622
18.083,35.9784
18.103,31.1583
18.123,26.9307
18.143,23.2307
18.163,19.9996
18.183,17.1839
18.203,14.7354
18.223,12.6109
18.243,10.7715
18.263,9.18212
18.283,7.81185
18.303,6.63295
18.323,5.62085
18.343,4.75378
18.363,4.01253
18.383,3.38018
18.403,2.84186
18.423,2.38456
18.443,1.9969
18.463,1.66896
18.483,1.39213
18.503,1.15892
18.523,0.962874
18.543,0.798414
18.563,0.660737
18.583,0.545722
18.603,0.449838
18.623,0.37007
18.643,0.303846
18.663,0.24898
18.683,0.203619
18.703,0.166193
18.723,0.135379
18.743,0.11006
18.763,0.0893003
18.783,0.0723131
18.803,0.0584418
18.823,0.0471381
18.843,0.0379457
18.863,0.0304856
18.883,0.0244439
18.903,0.0195608
18.923,0.0156223
18.943,0.0124522
18.963,0.00990582
18.983,0.00786459
19.003,0.00623166
19.023,0.00492803
19.043,0.00388942
19.063,0.00306365
19.083,0.00240844
19.103,0.00188962
19.123,0.00147963
19.143,0.00115632
19.163,0.000901865
19.183,0.000702018
19.203,0.000545378
19.223,0.000422852
19.243,0.000327206
19.263,0.000252695
19.283,0.000194767
19.303,0.000149821
19.323,0.000115021
19.343,8.81292e-05
19.363,6.73916e-05
19.383,5.14321e-05
19.403,3.91746e-05
19.423,2.97795e-05
19.443,2.25929e-05
19.463,1.71068e-05
19.483,1.29273e-05
19.503,9.74962e-06
19.523,7.33856e-06
19.543,5.51285e-06
19.563,4.13317e-06
19.583,3.09267e-06
19.603,2.30954e-06
19.623,1.72131e-06
19.643,1.28037e-06
19.663,9.50501e-07
19.683,7.04227e-07
19.703,5.20733e-07
19.723,3.8429e-07
19.743,2.83039e-07
19.763,2.08053e-07
19.783,1.52632e-07
19.803,1.11753e-07
19.823,8.16609e-08
19.843,5.9554e-08
19.863,4.33462e-08
19.883,3.14871e-08
19.903,2.28274e-08
19.923,1.65166e-08
19.943,1.1927e-08
19.963,8.59567e-09
19.983,6.18261e-09
20.003,4.43819e-09
20.023,3.17967e-09
20.043,2.27353e-09
20.063,1.62242e-09
20.083,1.15549e-09
20.103,8.21315e-10
20.123,5.82636e-10
20.143,4.12502e-10
20.163,2.91473e-10
20.183,2.05547e-10
20.203,1.44666e-10
20.223,1.01617e-10
20.243,7.12369e-11
20.263,4.9841e-11
20.283,3.48026e-11
20.303,2.42537e-11
20.323,1.68689e-11
20.343,1.17095e-11
20.363,8.11203e-12
20.383,5.60873e-12
20.403,3.87027e-12
20.423,2.66539e-12
20.443,1.83198e-12
20.463,1.25668e-12
20.483,8.60341e-13
20.503,5.87839e-13
20.523,4.00856e-13
20.543,2.7281e-13
20.563,1.853e-13
20.583,1.25612e-13
20.603,8.49824e-14
20.623,5.73812e-14
20.643,3.8668e-14
20.663,2.60062e-14
20.683,1.7456e-14
20.703,1.16937e-14
20.723,7.81815e-15
20.743,5.21672e-15
20.763,3.47402e-15
20.783,2.30893e-15
20.803,1.53155e-15
20.823,1.01389e-15
20.843,6.69878e-16
20.863,4.41715e-16
20.883,2.9069e-16
20.903,1.90924e-16
20.923,1.25151e-16
20.943,8.18744e-17
20.963,5.3457e-17
20.983,3.4834e-17
21.003,2.2654e-17
21.023,1.47037e-17
21.043,9.52474e-18
21.063,6.15773e-18
21.083,3.97311e-18
21.103,2.55848e-18
21.123,1.64428e-18
21.143,1.05466e-18
21.163,6.75134e-19
21.183,4.31331e-19
21.203,2.75025e-19
21.223,1.75016e-19
21.243,1.11154e-19
21.263,7.04552e-20
21.283,4.45701e-20
21.303,2.81395e-20
21.323,1.7731e-20
21.343,1.11504e-20
21.363,6.99824e-21
21.383,4.3836e-21
21.403,2.7404e-21
21.423,1.70978e-21
21.443,1.06465e-21
21.463,6.61635e-22
21.483,4.10365e-22
21.503,2.54018e-22
21.523,1.56928e-22
21.543,9.67565e-23
21.563,5.95389e-23
21.583,3.65649e-23
21.603,2.24114e-23
21.623,1.37093e-23
21.643,8.36962e-24
21.663,5.09961e-24
21.683,3.10106e-24
21.703,1.88203e-24
21.723,1.13995e-24
21.743,6.89104e-25
21.763,4.15745e-25
21.783,2.50329e-25
21.803,1.50431e-25
21.823,9.02207e-26
21.843,5.40029e-26
21.863,3.22604e-26
21.883,1.92338e-26
21.903,1.14446e-26
21.923,6.79643e-27
21.943,4.02812e-27
21.963,2.38268e-27
21.983,1.4066e-27
22.003,8.28742e-28
22.023,4.87314e-28
22.043,2.85984e-28
22.063,1.675e-28
22.083,9.7911e-29
22.103,5.71202e-29
22.123,3.32576e-29
22.143,1.93256e-29
22.163,1.12077e-29
22.183,6.48702e-30
22.203,3.74726e-30
22.223,2.16036e-30
22.243,1.24302e-30
22.263,7.13797e-31
22.283,4.09084e-31
22.303,2.33987e-31
22.323,1.33572e-31
22.343,7.60988e-32
22.363,4.32697e-32
22.383,2.45546e-32
22.403,1.39067e-32
22.423,7.8606e-33
22.443,4.43435e-33
22.463,2.49659e-33
22.483,1.40283e-33
22.503,7.86697e-34
22.523,4.40302e-34
22.543,2.45944e-34
22.563,1.37108e-34
22.583,7.6284e-35
22.603,4.23589e-35
22.623,2.34746e-35
22.643,1.29836e-35
22.663,7.16693e-36
22.683,3.94833e-36
22.703,2.17088e-36
22.723,1.19124e-36
22.743,6.5239e-37
22.763,3.5658e-37
22.783,1.94512e-37
22.803,1.05896e-37
22.823,5.75381e-38
22.843,3.12013e-38
22.863,1.68862e-38
22.883,9.12083e-39
22.903,4.91675e-39
22.923,2.64524e-39
22.943,1.42034e-39
22.963,7.61137e-40
22.983,4.07076e-40
23.003,2.17285e-40
23.023,1.15751e-40
23.043,6.1541e-41
23.063,3.26547e-41
23.083,1.72929e-41
23.103,9.13974e-42
23.123,4.82105e-42
23.143,2.53799e-42
23.163,1.33347e-42
23.183,6.99224e-43
23.203,3.65925e-43
23.223,1.91122e-43
23.243,9.96254e-44
23.263,5.18289e-44
23.283,2.69102e-44
23.303,1.39445e-44
23.323,7.2116e-45
23.343,3.72222e-45
23.363,1.91741e-45
23.383,9.85758e-46
23.403,5.05787e-46
23.423,2.59004e-46
23.443,1.3237e-46
23.463,6.75168e-47
23.483,3.43699e-47
23.503,1.74617e-47
23.523,8.85392e-48
23.543,4.48051e-48
23.563,2.26288e-48
23.583,1.14061e-48
23.603,5.73795e-49
23.623,2.88083e-49
23.643,1.44351e-49
23.663,7.21881e-50
23.683,3.6029e-50
23.703,1.79466e-50
23.723,8.92181e-51
23.743,4.42656e-51
23.763,2.19191e-51
23.783,1.08323e-51
23.803,5.34269e-52
23.823,2.62991e-52
23.843,1.29201e-52
23.863,6.33479e-53
23.883,3.09985e-53
23.903,1.51388e-53
23.923,7.37876e-54
23.943,3.58937e-54
23.963,1.74259e-54
23.983,8.44334e-55
24.003,4.08297e-55
24.023,1.97051e-55
24.043,9.49127e-56
24.063,4.5626e-56
24.083,2.18898e-56
24.103,1.04813e-56
24.123,5.00873e-57
24.143,2.38882e-57
24.163,1.13706e-57
24.183,5.4016e-58
24.203,2.56097e-58
24.223,1.2118e-58
24.243,5.72264e-59
24.263,2.69715e-59
24.283,1.26869e-59
24.303,5.95594e-60
24.323,2.79052e-60
24.343,1.30486e-60
24.363,6.08951e-61
24.383,2.83625e-61
24.403,1.3184e-61
24.423,6.11638e-62
24.443,2.83193e-62
24.463,1.30862e-62
24.483,6.03511e-63
24.503,2.77779e-63
24.523,1.27602e-63
24.543,5.84999e-64
24.563,2.67668e-64
24.583,1.2223e-64
24.603,5.57063e-65
24.623,2.5338e-65
24.643,1.15022e-65
24.663,5.21115e-66
24.683,2.35628e-66
24.703,1.06332e-66
24.723,4.78896e-67
24.743,2.15259e-67
24.763,9.65658e-68
24.783,4.32343e-68
24.803,1.93186e-68
24.823,8.61516e-69
24.843,3.83437e-69
24.863,1.70321e-69
24.883,7.55061e-70
24.903,3.34072e-70
24.923,1.47516e-70
24.943,6.501e-71
24.963,2.85933e-71
24.983,1.25513e-71
25.003,5.49867e-72
25.023,2.40419e-72
25.043,1.04911e-72
25.063,4.56893e-73
25.083,1.98587e-73
25.103,8.61449e-74
25.123,3.7295e-74
25.143,1.61144e-74
25.163,6.94893e-75
25.183,2.99065e-75
25.203,1.28456e-75
25.223,5.50663e-76
25.243,2.35591e-76
25.263,1.00595e-76
25.283,4.2868e-77
25.303,1.82319e-77
25.323,7.73883e-78
25.343,3.27838e-78
25.363,1.38607e-78
25.383,5.84863e-79
25.403,2.463e-79
25.423,1.03518e-79
25.443,4.34223e-80
25.463,1.81781e-80
25.483,7.59501e-81
25.503,3.16701e-81
25.523,1.31799e-81
25.543,5.47418e-82
25.563,2.26917e-82
25.583,9.38764e-83
25.603,3.87604e-83
25.623,1.59721e-83
25.643,6.56869e-84
25.663,2.69611e-84
25.683,1.10443e-84
25.703,4.51523e-85
25.723,1.84232e-85
25.743,7.50226e-86
25.763,3.04902e-86
25.783,1.23672e-86
25.803,5.0064e-87
25.823,2.02265e-87
25.843,8.15565e-88
25.863,3.282e-88
25.883,1.31814e-88
25.903,5.28353e-89
25.923,2.11364e-89
25.943,8.43875e-90
25.963,3.36255e-90
25.983,1.33721e-90
26.003,5.30733e-91
26.023,2.10229e-91
26.043,8.31097e-92
26.063,3.27908e-92
26.083,1.29121e-92
26.103,5.07436e-93
26.123,1.99025e-93
26.143,7.79073e-94
26.163,3.04362e-94
26.183,1.18671e-94
26.203,4.61785e-95
26.223,1.7934e-95
26.243,6.95117e-96
26.263,2.68894e-96
26.283,1.03811e-96
26.303,3.99992e-97
26.323,1.53816e-97
26.343,5.90325e-98
26.363,2.26112e-98
26.383,8.6437e-99
26.403,3.29774e-99
26.423,1.25567e-99
26.443,4.77176e-100
26.463,1.80976e-100
26.483,6.85027e-101
26.503,2.58783e-101
26.523,9.75677e-102
26.543,3.67129e-102
26.563,1.37871e-102
26.583,5.16737e-103
26.603,1.93289e-103
26.623,7.21587e-104
26.643,2.68851e-104
26.663,9.99716e-105
26.683,3.71009e-105
26.703,1.37415e-105
26.723,5.07954e-106
26.743,1.87395e-106
26.763,6.89976e-107
26.783,2.53543e-107
26.803,9.29848e-108
26.823,3.40341e-108
26.843,1.24325e-108
26.863,4.53257e-109
26.883,1.6492e-109
26.903,5.98886e-110
26.923,2.17049e-110
26.943,7.85077e-111
26.963,2.83406e-111
26.983,1.02105e-111
27.003,3.67138e-112
27.023,1.31751e-112
27.043,4.71866e-113
27.063,1.68666e-113
27.083,6.01695e-114
27.103,2.14224e-114
27.123,7.61207e-115
27.143,2.69947e-115
27.163,9.55427e-116
27.183,3.37488e-116
27.203,1.18976e-116
27.223,4.18606e-117
27.243,1.46992e-117
27.263,5.15136e-118
27.283,1.80174e-118
27.303,6.28936e-119
27.323,2.1911e-119
27.343,7.61833e-120
27.363,2.64362e-120
27.383,9.15548e-121
27.403,3.1645e-121
27.423,1.09162e-121
27.443,3.7582e-122
27.463,1.29131e-122
27.483,4.42816e-123
27.503,1.51551e-123
27.523,5.17648e-124
27.543,1.76463e-124
27.563,6.00364e-125
27.583,2.03853e-125
27.603,6.90817e-126
27.623,2.33642e-126
27.643,7.88643e-127
27.663,2.65676e-127
27.683,8.93236e-128
27.703,2.99725e-128
27.723,1.00374e-128
27.743,3.35476e-129
27.763,1.11903e-129
27.783,3.72536e-130
27.803,1.23775e-130
27.823,4.10434e-131
27.843,1.3583e-131
27.863,4.48629e-132
27.883,1.47885e-132
27.903,4.8652e-133
27.923,1.59742e-133
27.943,5.23458e-134
27.963,1.71193e-134
27.983,5.58768e-135
28.003,1.8202e-135
28.023,5.91766e-136
28.043,1.92009e-136
28.063,6.2178e-137
28.083,2.00952e-137
28.103,6.48175e-138
28.123,2.08657e-138
28.143,6.70372e-139
28.163,2.14952e-139
28.183,6.87873e-140
28.203,2.19694e-140
28.223,7.00276e-141
28.243,2.22773e-141
28.263,7.07292e-142
28.283,2.24118e-142
28.303,7.08756e-143
28.323,2.23696e-143
28.343,7.04634e-144
28.363,2.21519e-144
28.383,6.95022e-145
28.403,2.17635e-145
28.423,6.80146e-146
28.443,2.12137e-146
28.463,6.60351e-147
28.483,2.05151e-147
28.503,6.36085e-148
28.523,1.96833e-148
28.543,6.07889e-149
28.563,1.87367e-149
28.583,5.76371e-150
28.603,1.76952e-150
28.623,5.42187e-151
28.643,1.658e-151
28.663,5.06015e-152
28.683,1.54129e-152
28.703,4.68541e-153
28.723,1.42152e-153
28.743,4.30427e-154
28.763,1.30073e-154
28.783,3.92301e-155
28.803,1.18085e-155
28.823,3.54739e-156
28.843,1.06357e-156
28.863,3.18248e-157
28.883,9.50404e-158
28.903,2.83265e-158
28.923,8.42595e-159
28.943,2.50142e-159
28.963,7.41136e-160
28.983,2.19154e-160
29.003,6.46763e-161
29.023,1.90494e-161
29.043,5.59965e-162
29.063,1.64279e-162
29.083,4.81001e-163
29.103,1.40557e-163
29.123,4.0992e-164
29.143,1.19313e-164
29.163,3.46594e-165
29.183,1.00483e-165
29.203,2.90744e-166
29.223,8.39593e-167
29.243,2.41974e-167
29.263,6.96004e-168
29.283,1.998e-168
29.303,5.72431e-169
29.323,1.63679e-169
29.343,4.67093e-170
29.363,1.33032e-170
29.383,3.78139e-171
29.403,1.07273e-171
29.423,3.03717e-172
29.443,8.58205e-173
29.463,2.42022e-173
29.483,6.81178e-174
29.503,1.91341e-174
29.523,5.36413e-175
29.543,1.50083e-175
29.563,4.19089e-176
29.583,1.16795e-176
29.603,3.24849e-177
29.623,9.01743e-178
29.643,2.49819e-178
29.663,6.90734e-179
29.683,1.90607e-179
29.703,5.24938e-180
29.723,1.44284e-180
29.743,3.95798e-181
29.763,1.0836e-181
29.783,2.96079e-182
29.803,8.07398e-183
29.823,2.1974e-183
29.843,5.96863e-184
29.863,1.61801e-184
29.883,4.37753e-185
29.903,1.18201e-185
29.923,3.18532e-186
29.943,8.567e-187
29.963,2.29957e-187
29.983,6.16035e-188
30.003,1.64705e-188
30.023,4.39491e-189
30.043,1.17041e-189
30.063,3.11074e-190
30.083,8.25152e-191
30.103,2.18447e-191
30.123,5.77166e-192
30.143,1.52194e-192
30.163,4.00531e-193
30.183,1.052e-193
30.203,2.75765e-194
30.223,7.21447e-195
30.243,1.8837e-195
30.263,4.90864e-196
30.283,1.27659e-196
30.303,3.31349e-197
30.323,8.58344e-198
30.343,2.21911e-198
30.363,5.72584e-199
30.383,1.47449e-199
30.403,3.78953e-200
30.423,9.72012e-201
30.443,2.48829e-201
30.463,6.35727e-202
30.483,1.621e-202
30.503,4.12514e-203
30.523,1.0477e-203
30.543,2.65567e-204
30.563,6.71825e-205
30.583,1.69621e-205
30.603,4.2741e-206
30.623,1.07486e-206
30.643,2.69775e-207
30.663,6.75763e-208
30.683,1.68938e-208
30.703,4.21507e-209
30.723,1.0496e-209
30.743,2.60846e-210
30.763,6.46973e-211
30.783,1.60151e-211
30.803,3.95656e-212
30.823,9.75544e-213
30.843,2.40059e-213
30.863,5.89564e-214
30.883,1.44506e-214
30.903,3.53496e-215
30.923,8.63026e-216
30.943,2.10284e-216
30.963,5.11364e-217
30.983,1.24107e-217
31.003,3.00611e-218
31.023,7.26699e-219
31.043,1.75326e-219
31.063,4.22165e-220
31.083,1.01452e-220
31.103,2.4332e-221
31.123,5.82423e-222
31.143,1.39137e-222
31.163,3.31732e-223
31.183,7.89359e-224
31.203,1.87458e-224
31.223,4.44299e-225
31.243,1.05097e-225
31.263,2.48111e-226
31.283,5.8458e-227
31.303,1.37462e-227
31.323,3.22601e-228
31.343,7.55598e-229
31.363,1.76627e-229
31.383,4.12066e-230
31.403,9.59439e-231
31.423,2.22951e-231
31.443,5.17065e-232
31.463,1.1968e-232
31.483,2.76466e-233
31.503,6.37388e-234
31.523,1.46659e-234
31.543,3.36786e-235
31.563,7.71865e-236
31.583,1.76552e-236
31.603,4.03036e-237
31.623,9.18244e-238
31.643,2.08792e-238
31.663,4.7382e-239
31.683,1.07313e-239
31.703,2.4257e-240
31.723,5.4722e-241
31.743,1.23205e-241
31.763,2.76846e-242
31.783,6.20855e-243
31.803,1.38958e-243
31.823,3.10399e-244
31.843,6.91987e-245
31.863,1.53963e-245
31.883,3.41885e-246
31.903,7.57677e-247
31.923,1.67583e-247
31.943,3.6993e-248
31.963,8.14985e-249
31.983,1.79194e-249
32.003,3.93222e-250
32.023,8.61181e-251
32.043,1.88232e-251
32.063,4.10615e-252
32.083,8.93961e-253
32.103,1.94243e-253
32.123,4.21223e-254
32.143,9.11637e-255
32.163,1.96913e-255
32.183,4.24491e-256
32.203,9.13281e-257
32.223,1.96102e-257
32.243,4.20246e-258
32.263,8.98807e-259
32.283,1.91854e-259
32.303,4.08713e-260
32.323,8.68975e-261
32.343,1.8439e-261
32.363,3.90492e-262
32.383,8.25329e-263
32.403,1.74094e-263
32.423,3.66509e-264
32.443,7.70064e-265
32.463,1.61477e-265
32.483,3.37938e-266
32.503,7.05838e-267
32.523,1.47135e-267
32.543,3.06103e-268
32.563,6.35569e-269
32.583,1.31704e-269
32.603,2.72382e-270
32.623,5.62212e-271
32.643,1.15815e-271
32.663,2.38105e-272
32.683,4.88558e-273
32.703,1.00047e-273
32.723,2.04474e-274
32.743,4.17072e-275
32.763,8.49039e-276
32.783,1.72499e-276
32.803,3.49773e-277
32.823,7.07829e-278
32.843,1.4296e-278
32.863,2.88164e-279
32.883,5.79707e-280
32.903,1.16391e-280
32.923,2.33224e-281
32.943,4.6641e-282
32.963,9.30905e-283
32.983,1.85432e-283
33.003,3.68644e-284
33.023,7.31426e-285
33.043,1.44836e-285
33.063,2.86236e-286
33.083,5.64566e-287
33.103,1.11134e-287
33.123,2.18334e-288
33.143,4.28093e-289
33.163,8.37716e-290
33.183,1.63606e-290
33.203,3.1889e-291
33.223,6.20335e-292
33.243,1.20435e-292
33.263,2.33358e-293
33.283,4.51268e-294
33.303,8.7094e-295
33.323,1.67758e-295
33.343,3.22494e-296
33.363,6.18731e-297
33.383,1.18474e-297
33.403,2.26406e-298
33.423,4.31812e-299
33.443,8.21947e-300
33.463,1.56147e-300
33.483,2.96052e-301
33.503,5.60199e-302
33.523,1.05794e-302
33.543,1.99397e-303
33.563,3.75077e-304
33.583,7.04148e-305
33.603,1.31932e-305
33.623,2.46705e-306
33.643,4.60413e-307
33.663,8.5755e-308
33.683,1.59409e-308
33.703,2.9574e-309
33.723,5.47581e-310
33.743,1.01188e-310
33.763,1.86617e-311
33.783,3.43492e-312
33.803,6.30992e-313
33.823,1.15684e-313
33.843,2.11673e-314
33.863,3.86543e-315
33.883,7.04478e-316
33.903,1.281463e-316
33.923,2.32512e-317
33.943,4.20203e-318
33.963,7.47027e-319
33.983,1.24505e-319
34.003,3.1126e-320
34.023,0.0
34.043,0.0
34.063,0.0
34.083,0.0
34.103,0.0
34.123,0.0
34.143,0.0
34.163,0.0
34.183,0.0
34.203,0.0
34.223,0.0
34.243,0.0
34.263,0.0
34.283,0.0
34.303,0.0
34.323,0.0
34.343,0.0
34.363,0.0
34.383,0.0
34.403,0.0
34.423,0.0
34.443,0.0
34.463,0.0
34.483,0.0
34.503,0.0
34.523,0.0
34.543,0.0
34.563,0.0
34.583,0.0
34.603,0.0
34.623,0.0
34.643,0.0
34.663,0.0
34.683,0.0
34.703,0.0
34.723,0.0
34.743,0.0
34.763,0.0
34.783,0.0
34.803,0.0
34.823,0.0
34.843,0.0
34.863,0.0
34.883,0.0
34.903,0.0
34.923,0.0
34.943,0.0
34.963,0.0
34.983,0.0
35.003,0.0
35.023,0.0
35.043,0.0
35.063,0.0
35.083,0.0
35.103,0.0
35.123,0.0
35.143,0.0
35.163,0.0
35.183,0.0
35.203,0.0
35.223,0.0
35.243,0.0
35.263,0.0
35.283,0.0
35.303,0.0
35.323,0.0
35.343,0.0
35.363,0.0
35.383,0.0
35.403,0.0
35.423,0.0
35.443,0.0
35.463,0.0
35.483,0.0
35.503,0.0
35.523,0.0
35.543,0.0
35.563,0.0
35.583,0.0
35.603,0.0
35.623,0.0
35.643,0.0
35.663,0.0
35.683,0.0
35.703,0.0
35.723,0.0
35.743,0.0
35.763,0.0
35.783,0.0
35.803,0.0
35.823,0.0
35.843,0.0
35.863,0.0
35.883,0.0
35.903,0.0
35.923,0.0
35.943,0.0
35.963,0.0
35.983,0.0
36.003,0.0
36.023,0.0
36.043,0.0
36.063,0.0
36.083,0.0
36.103,0.0
36.123,0.0
36.143,0.0
36.163,0.0
36.183,0.0
36.203,0.0
36.223,0.0
36.243,0.0
36.263,0.0
36.283,0.0
36.303,0.0
36.323,0.0
36.343,0.0
36.363,0.0
36.383,0.0
36.403,0.0
36.423,0.0
36.443,0.0
36.463,0.0
36.483,0.0
36.503,0.0
36.523,0.0
36.543,0.0
36.563,0.0
36.583,0.0
36.603,0.0
36.623,0.0
36.643,0.0
36.663,0.0
36.683,0.0
36.703,0.0
36.723,0.0
36.743,0.0
36.763,0.0
36.783,0.0
36.803,0.0
36.823,0.0
36.843,0.0
36.863,0.0
36.883,0.0
36.903,0.0
36.923,0.0
36.943,0.0
36.963,0.0
36.983,0.0
37.003,0.0
37.023,0.0
37.043,0.0
37.063,0.0
37.083,0.0
37.103,0.0
37.123,0.0
37.143,0.0
37.163,0.0
37.183,0.0
37.203,0.0
37.223,0.0
37.243,0.0
37.263,0.0
37.283,0.0
37.303,0.0
37.323,0.0
37.343,0.0
37.363,0.0
37.383,0.0
37.403,0.0
37.423,0.0
37.443,0.0
37.463,0.0
37.483,0.0
37.503,0.0
37.523,0.0
37.543,0.0
37.563,0.0
37.583,0.0
37.603,0.0
37.623,0.0
37.643,0.0
37.663,0.0
37.683,0.0
37.703,0.0
37.723,0.0
37.743,0.0
37.763,0.0
37.783,0.0
37.803,0.0
37.823,0.0
37.843,0.0
37.863,0.0
37.883,0.0
37.903,0.0
37.923,0.0
37.943,0.0
37.963,0.0
37.983,0.0
38.003,0.0
38.023,0.0
38.043,0.0
38.063,0.0
38.083,0.0
38.103,0.0
38.123,0.0
38.143,0.0
38.163,0.0
38.183,0.0
38.203,0.0
38.223,0.0
38.243,0.0
38.263,0.0
38.283,0.0
38.303,0.0
38.323,0.0
38.343,0.0
38.363,0.0
38.383,0.0
38.403,0.0
38.423,0.0
38.443,0.0
38.463,0.0
38.483,0.0
38.503,0.0
38.523,0.0
38.543,0.0
38.563,0.0
38.583,0.0
38.603,0.0
38.623,0.0
38.643,0.0
38.663,0.0
38.683,0.0
38.703,0.0
38.723,0.0
38.743,0.0
38.763,0.0
38.783,0.0
38.803,0.0
38.823,0.0
38.843,0.0
38.863,0.0
38.883,0.0
38.903,0.0
38.923,0.0
38.943,0.0
38.963,0.0
38.983,0.0
39.003,0.0
39.023,0.0
39.043,0.0
39.063,0.0
39.083,0.0
39.103,0.0
39.123,0.0
39.143,0.0
39.163,0.0
39.183,0.0
39.203,0.0
39.223,0.0
39.243,0.0
39.263,0.0
39.283,0.0
39.293,0.0