File: park_2003/900C_xrd/curve_1_fit.dat
33.3714,0.000641318
33.4214,0.000694492
33.4714,0.00075456
33.5214,0.000822767
33.5714,0.00090065
33.6214,0.00099013
33.6714,0.00109363
33.7214,0.00121422
33.7714,0.0013559
33.8214,0.00152387
33.8714,0.00172505
33.9214,0.00196879
33.9714,0.00226799
34.0214,0.0026408
34.0714,0.00311342
34.1214,0.00372483
34.1714,0.00453497
34.2214,0.0056398
34.2714,0.0072007
34.3214,0.00950556
34.3714,0.0131079
34.4214,0.0191793
34.4714,0.0305329
34.5214,0.0551715
34.5714,0.121051
34.6214,0.316595
34.6714,0.354847
34.7214,0.138131
34.7714,0.0608908
34.8214,0.0329293
34.8714,0.0203769
34.9214,0.0137847
34.9714,0.00992308
35.0214,0.00747563
35.0714,0.00583013
35.1214,0.00467204
35.1714,0.00382676
35.2214,0.00319123
35.2714,0.00270153
35.3214,0.00231629
35.3714,0.00200783
35.4214,0.00175704
35.4714,0.00155041
35.5214,0.00137817
35.5714,0.00123308
35.6214,0.00110974
35.6714,0.00100401
35.7214,0.000912685
35.7714,0.000833271
35.8214,0.000763783
35.8714,0.000702633
35.9214,0.00064854
35.9714,0.000600459
36.0214,0.00055753
36.0714,0.000519044
36.1214,0.000484409
36.1714,0.000453127
36.2214,0.000424779
36.2714,0.000399009
36.3214,0.000375515
36.3714,0.000354036
36.4214,0.000334347
36.4714,0.000316257
36.5214,0.000299595
36.5714,0.000284216
36.6214,0.000269991
36.6714,0.000256808
36.7214,0.000244567
36.7714,0.000233181
36.8214,0.000222571
36.8714,0.00021267
36.9214,0.000203415
36.9714,0.000194751
37.0214,0.000186628
37.0714,0.000179004
37.1214,0.000171837
37.1714,0.000165092
37.2214,0.000158737
37.2714,0.000152741
37.3214,0.000147079
37.3714,0.000141726
37.4214,0.00013666
37.4714,0.000131861
37.5214,0.00012731
37.5714,0.000122991
37.6214,0.000118888
37.6714,0.000114986
37.7214,0.000111274
37.7714,0.000107739
37.8214,0.000104369
37.8714,0.000101155
37.9214,9.80876e-05
37.9714,9.51573e-05
38.0214,9.23564e-05
38.0714,8.96773e-05
38.1214,8.71131e-05
38.1714,8.46574e-05
38.2214,8.2304e-05
38.2714,8.00475e-05
38.3214,7.78824e-05
38.3714,7.58041e-05
38.4214,7.38078e-05
38.4714,7.18893e-05
38.5214,7.00447e-05
38.5714,6.82702e-05
38.6214,6.65622e-05
38.6714,6.49176e-05
38.7214,6.33331e-05
38.7714,6.1806e-05
38.8214,6.03334e-05
38.8714,5.89129e-05
38.9214,5.75419e-05
38.9714,5.62182e-05
39.0214,5.49397e-05
39.0714,5.37043e-05
39.1214,5.25101e-05
39.1714,5.13553e-05
39.2214,5.02382e-05
39.2714,4.91571e-05
39.3214,4.81106e-05
39.3714,4.70971e-05
39.4214,4.61153e-05
39.4714,4.51639e-05
39.5214,4.42417e-05
39.5714,4.33474e-05
39.6214,4.24799e-05
39.6714,4.16382e-05
39.7214,4.08213e-05
39.7714,4.00282e-05
39.8214,3.9258e-05
39.8714,3.85098e-05
39.9214,3.77828e-05
39.9714,3.70762e-05
40.0214,3.63892e-05
40.0714,3.57212e-05
40.1214,3.50713e-05
40.1714,3.44391e-05
40.2214,3.38238e-05
40.2714,3.32248e-05
40.3214,3.26416e-05
40.3714,3.20736e-05
40.4214,3.15203e-05
40.4714,3.09812e-05
40.5214,3.04559e-05
40.5714,2.99437e-05
40.6214,2.94444e-05
40.6714,2.89575e-05
40.7214,2.84825e-05
40.7714,2.80192e-05
40.8214,2.7567e-05
40.8714,2.71257e-05
40.9214,2.6695e-05
40.9714,2.62744e-05
41.0214,2.58636e-05
41.0714,2.54624e-05
41.1214,2.50705e-05
41.1714,2.46876e-05
41.2214,2.43134e-05
41.2714,2.39476e-05
41.3214,2.359e-05
41.3714,2.32403e-05
41.4214,2.28984e-05
41.4714,2.2564e-05
41.5214,2.22368e-05
41.5714,2.19167e-05
41.6214,2.16035e-05
41.6714,2.12969e-05
41.7214,2.09968e-05
41.7714,2.0703e-05
41.8214,2.04154e-05
41.8714,2.01337e-05
41.9214,1.98577e-05
41.9714,1.95874e-05
42.0214,1.93226e-05
42.0714,1.90632e-05
42.1214,1.88089e-05
42.1714,1.85597e-05
42.2214,1.83153e-05
42.2714,1.80758e-05
42.3214,1.7841e-05
42.3714,1.76107e-05
42.4214,1.73848e-05
42.4714,1.71633e-05
42.5214,1.69459e-05
42.5714,1.67327e-05
42.6214,1.65234e-05
42.6714,1.63181e-05
42.7214,1.61166e-05
42.7714,1.59187e-05
42.8214,1.57245e-05
42.8714,1.55338e-05
42.9214,1.53466e-05
42.9714,1.51628e-05
43.0214,1.49822e-05
43.0714,1.48048e-05
43.1214,1.46306e-05
43.1714,1.44594e-05
43.2214,1.42912e-05
43.2714,1.41259e-05
43.3214,1.39635e-05
43.3714,1.38038e-05
43.4214,1.36469e-05
43.4714,1.34927e-05
43.5214,1.3341e-05
43.5714,1.31919e-05
43.6214,1.30453e-05
43.6714,1.29011e-05
43.7214,1.27592e-05
43.7714,1.26198e-05
43.8214,1.24825e-05
43.8714,1.23475e-05
43.9214,1.22147e-05
43.9714,1.2084e-05
44.0214,1.19554e-05
44.0714,1.18289e-05
44.1214,1.17043e-05
44.1714,1.15817e-05
44.2214,1.1461e-05
44.2714,1.13422e-05
44.3214,1.12253e-05
44.3714,1.11101e-05
44.4214,1.09967e-05
44.4714,1.0885e-05
44.5214,1.0775e-05
44.5714,1.06667e-05
44.6214,1.056e-05
44.6714,1.04549e-05
44.7214,1.03513e-05
44.7714,1.02493e-05
44.8214,1.01488e-05
44.8714,1.00498e-05
44.9214,9.95217e-06
44.9714,9.85598e-06
45.0214,9.76118e-06
45.0714,9.66774e-06
45.1214,9.57564e-06
45.1714,9.48485e-06
45.2214,9.39534e-06
45.2714,9.30709e-06
45.3214,9.22009e-06
45.3714,9.13429e-06
45.4214,9.04969e-06
45.4714,8.96626e-06
45.5214,8.88397e-06
45.5714,8.80282e-06
45.6214,8.72277e-06
45.6714,8.6438e-06
45.7214,8.56591e-06
45.7714,8.48906e-06
45.8214,8.41324e-06
45.8714,8.33844e-06
45.9214,8.26462e-06
45.9714,8.19179e-06
46.0214,8.11991e-06
46.0714,8.04897e-06
46.1214,7.97896e-06
46.1714,7.90986e-06
46.2214,7.84165e-06
46.2714,7.77432e-06
46.3214,7.70786e-06
46.3714,7.64224e-06
46.4214,7.57746e-06
46.4714,7.51349e-06
46.5214,7.45034e-06
46.5714,7.38797e-06
46.6214,7.32639e-06
46.6714,7.26557e-06
46.7214,7.20551e-06
46.7714,7.14619e-06
46.8214,7.0876e-06
46.8714,7.02973e-06
46.9214,6.97256e-06
46.9714,6.91608e-06
47.0214,6.86029e-06
47.0714,6.80518e-06
47.1214,6.75072e-06
47.1714,6.69692e-06
47.2214,6.64375e-06
47.2714,6.59122e-06
47.3214,6.53931e-06
47.3714,6.488e-06
47.4214,6.4373e-06
47.4714,6.38719e-06
47.5214,6.33767e-06
47.5714,6.28872e-06
47.6214,6.24033e-06
47.6714,6.1925e-06
47.7214,6.14522e-06
47.7714,6.09847e-06
47.8214,6.05226e-06
47.8714,6.00657e-06
47.9214,5.9614e-06
47.9714,5.91673e-06
48.0214,5.87257e-06
48.0714,5.82889e-06
48.1214,5.7857e-06
48.1714,5.743e-06
48.2214,5.70076e-06
48.2714,5.65898e-06
48.3214,5.61767e-06
48.3714,5.5768e-06
48.4214,5.53638e-06
48.4714,5.4964e-06
48.5214,5.45684e-06
48.5714,5.41772e-06
48.6214,5.37901e-06
48.6714,5.34072e-06
48.7214,5.30283e-06
48.7714,5.26534e-06
48.8214,5.22826e-06
48.8714,5.19156e-06
48.9214,5.15524e-06
48.9714,5.11931e-06
49.0214,5.08375e-06
49.0714,5.04856e-06
49.1214,5.01374e-06
49.1714,4.97927e-06
49.2214,4.94516e-06
49.2714,4.91139e-06
49.3214,4.87798e-06
49.3714,4.8449e-06
49.4214,4.81215e-06
49.4714,4.77974e-06
49.5214,4.74766e-06
49.5714,4.71589e-06
49.6214,4.68445e-06
49.6714,4.65331e-06
49.7214,4.62249e-06
49.7714,4.59197e-06
49.8214,4.56175e-06
49.8714,4.53183e-06
49.9214,4.50221e-06
49.9714,4.47287e-06
50.0214,4.44382e-06
50.0714,4.41505e-06
50.1214,4.38656e-06
50.1714,4.35835e-06
50.2214,4.3304e-06
50.2714,4.30272e-06
50.3214,4.27531e-06
50.3714,4.24816e-06
50.4214,4.22127e-06
50.4714,4.19463e-06
50.5214,4.16824e-06
50.5714,4.14211e-06
50.6214,4.11621e-06
50.6714,4.09056e-06
50.7214,4.06515e-06
50.7714,4.03997e-06
50.8214,4.01503e-06
50.8714,3.99031e-06
50.9214,3.96583e-06
50.9714,3.94157e-06
51.0214,3.91753e-06
51.0714,3.89371e-06
51.1214,3.87011e-06
51.1714,3.84672e-06
51.2214,3.82354e-06
51.2714,3.80057e-06
51.3214,3.77781e-06
51.3714,3.75525e-06
51.4214,3.73289e-06
51.4714,3.71073e-06
51.5214,3.68877e-06
51.5714,3.66701e-06
51.6214,3.64543e-06
51.6714,3.62405e-06
51.7214,3.60285e-06
51.7714,3.58184e-06
51.8214,3.56101e-06
51.8714,3.54036e-06
51.9214,3.51989e-06
51.9714,3.4996e-06
52.0214,3.47948e-06
52.0714,3.45954e-06
52.1214,3.43977e-06
52.1714,3.42016e-06
52.2214,3.40073e-06
52.2714,3.38146e-06
52.3214,3.36235e-06
52.3714,3.3434e-06
52.4214,3.32462e-06
52.4714,3.30599e-06
52.5214,3.28751e-06
52.5714,3.2692e-06
52.6214,3.25103e-06
52.6714,3.23301e-06
52.7214,3.21515e-06
52.7714,3.19743e-06
52.8214,3.17986e-06
52.8714,3.16243e-06
52.9214,3.14515e-06
52.9714,3.12801e-06
53.0214,3.111e-06
53.0714,3.09414e-06
53.1214,3.07741e-06
53.1714,3.06082e-06
53.2214,3.04436e-06
53.2714,3.02803e-06
53.3214,3.01184e-06
53.3714,2.99577e-06
53.4214,2.97983e-06
53.4714,2.96402e-06
53.5214,2.94834e-06
53.5714,2.93277e-06
53.6214,2.91734e-06
53.6714,2.90202e-06
53.7214,2.88682e-06
53.7714,2.87174e-06
53.8214,2.85679e-06
53.8714,2.84194e-06
53.9214,2.82721e-06
53.9714,2.8126e-06
54.0214,2.7981e-06
54.0714,2.78371e-06
54.1214,2.76943e-06
54.1714,2.75527e-06
54.2214,2.74121e-06
54.2714,2.72725e-06
54.3214,2.71341e-06
54.3714,2.69967e-06
54.4214,2.68603e-06
54.4714,2.67249e-06
54.5214,2.65906e-06
54.5714,2.64573e-06
54.6214,2.6325e-06
54.6714,2.61937e-06
54.7214,2.60633e-06
54.7714,2.5934e-06
54.8214,2.58056e-06
54.8714,2.56781e-06
54.9214,2.55516e-06
54.9714,2.5426e-06
55.0214,2.53014e-06
55.0714,2.51776e-06
55.1214,2.50548e-06
55.1714,2.49328e-06
55.2214,2.48118e-06
55.2714,2.46916e-06
55.3214,2.45723e-06
55.3714,2.44539e-06
55.4214,2.43363e-06
55.4714,2.42195e-06
55.5214,2.41036e-06
55.5714,2.39886e-06
55.6214,2.38743e-06
55.6714,2.37609e-06
55.7214,2.36483e-06
55.7714,2.35364e-06
55.8214,2.34254e-06
55.8714,2.33151e-06
55.9214,2.32056e-06
55.9714,2.30969e-06
56.0214,2.2989e-06
56.0714,2.28818e-06
56.1214,2.27754e-06
56.1714,2.26697e-06
56.2214,2.25647e-06
56.2714,2.24604e-06
56.3214,2.23569e-06
56.3714,2.22541e-06
56.4214,2.2152e-06
56.4714,2.20506e-06
56.5214,2.19499e-06
56.5714,2.18499e-06
56.6214,2.17506e-06
56.6714,2.16519e-06
56.7214,2.15539e-06
56.7714,2.14566e-06
56.8214,2.13599e-06
56.8714,2.12639e-06
56.9214,2.11685e-06
56.9714,2.10738e-06
57.0214,2.09797e-06
57.0714,2.08863e-06
57.1214,2.07934e-06
57.1714,2.07012e-06
57.2214,2.06096e-06
57.2714,2.05186e-06
57.3214,2.04282e-06
57.3714,2.03384e-06
57.4214,2.02491e-06
57.4714,2.01605e-06
57.5214,2.00725e-06
57.5714,1.9985e-06
57.6214,1.98981e-06
57.6714,1.98118e-06
57.7214,1.9726e-06
57.7714,1.96408e-06
57.8214,1.95561e-06
57.8714,1.9472e-06
57.9214,1.93884e-06
57.9714,1.93053e-06
58.0214,1.92228e-06
58.0714,1.91408e-06
58.1214,1.90594e-06
58.1714,1.89784e-06
58.2214,1.8898e-06
58.2714,1.88181e-06
58.3214,1.87387e-06
58.3714,1.86598e-06
58.4214,1.85813e-06
58.4714,1.85034e-06
58.5214,1.8426e-06
58.5714,1.8349e-06
58.6214,1.82726e-06
58.6714,1.81966e-06
58.7214,1.81211e-06
58.7714,1.8046e-06
58.8214,1.79714e-06
58.8714,1.78973e-06
58.9214,1.78237e-06
58.9714,1.77505e-06
59.0214,1.76777e-06
59.0714,1.76054e-06
59.1214,1.75335e-06
59.1714,1.74621e-06
59.2214,1.73911e-06
59.2714,1.73205e-06
59.3214,1.72504e-06
59.3714,1.71807e-06
59.4214,1.71114e-06
59.4714,1.70425e-06
59.5214,1.69741e-06
59.5714,1.6906e-06
59.6214,1.68384e-06
59.6714,1.67712e-06
59.7214,1.67043e-06
59.7714,1.66379e-06
59.8214,1.65719e-06
59.8714,1.65062e-06
59.9214,1.6441e-06
59.9714,1.63761e-06
60.0214,1.63117e-06
60.0714,1.62475e-06
60.1214,1.61838e-06
60.1714,1.61205e-06
60.2214,1.60575e-06
60.2714,1.59949e-06
60.3214,1.59326e-06
60.3714,1.58708e-06
60.4214,1.58092e-06
60.4714,1.57481e-06
60.5214,1.56873e-06
60.5714,1.56268e-06
60.6214,1.55667e-06
60.6714,1.55069e-06
60.7214,1.54475e-06
60.7714,1.53884e-06
60.8214,1.53297e-06
60.8714,1.52713e-06
60.9214,1.52132e-06
60.9714,1.51555e-06
61.0214,1.5098e-06
61.0714,1.5041e-06
61.1214,1.49842e-06
61.1714,1.49277e-06
61.2214,1.48716e-06
61.2714,1.48158e-06
61.3214,1.47603e-06
61.3714,1.47051e-06
61.4214,1.46502e-06
61.4714,1.45957e-06
61.5214,1.45414e-06
61.5714,1.44874e-06
61.6214,1.44338e-06
61.6714,1.43804e-06
61.7214,1.43273e-06
61.7714,1.42746e-06
61.8214,1.42221e-06
61.8714,1.41699e-06
61.9214,1.4118e-06
61.9714,1.40663e-06
62.0214,1.4015e-06
62.0714,1.39639e-06
62.1214,1.39132e-06
62.1714,1.38626e-06
62.2214,1.38124e-06
62.2714,1.37624e-06
62.3214,1.37128e-06
62.3714,1.36633e-06
62.4214,1.36142e-06
62.4714,1.35653e-06
62.5214,1.35167e-06
62.5714,1.34683e-06
62.6214,1.34202e-06
62.6714,1.33723e-06
62.7214,1.33247e-06
62.7714,1.32774e-06
62.8214,1.32303e-06
62.8714,1.31835e-06
62.9214,1.31369e-06
62.9714,1.30905e-06
63.0214,1.30444e-06
63.0714,1.29986e-06
63.1214,1.2953e-06
63.1714,1.29076e-06
63.2214,1.28625e-06
63.2714,1.28176e-06
63.3214,1.27729e-06
63.3714,1.27285e-06
63.4214,1.26843e-06
63.4714,1.26403e-06
63.5214,1.25965e-06
63.5714,1.2553e-06
63.6214,1.25097e-06
63.6714,1.24667e-06
63.7214,1.24238e-06
63.7714,1.23812e-06
63.8214,1.23388e-06
63.8714,1.22966e-06
63.9214,1.22546e-06
63.9714,1.22129e-06
64.0214,1.21713e-06
64.0714,1.213e-06
64.1214,1.20889e-06
64.1714,1.2048e-06
64.2214,1.20073e-06
64.2714,1.19667e-06
64.3214,1.19265e-06
64.3714,1.18864e-06
64.4214,1.18465e-06
64.4714,1.18068e-06
64.5214,1.17673e-06
64.5714,1.1728e-06
64.6214,1.16889e-06
64.6714,1.165e-06
64.7214,1.16113e-06
64.7714,1.15728e-06
64.8214,1.15344e-06
64.8714,1.14963e-06
64.9214,1.14584e-06
64.9714,1.14206e-06
65.0214,1.1383e-06
65.0714,1.13456e-06
65.1214,1.13084e-06
65.1714,1.12714e-06
65.2214,1.12346e-06
65.2714,1.11979e-06
65.3214,1.11614e-06
65.3714,1.11251e-06
65.4214,1.1089e-06
65.4714,1.10531e-06
65.5214,1.10173e-06
65.5714,1.09817e-06
65.6214,1.09463e-06
65.6714,1.0911e-06
65.7214,1.08759e-06
65.7714,1.0841e-06
65.8214,1.08062e-06
65.8714,1.07717e-06
65.9214,1.07372e-06
65.9714,1.0703e-06
66.0214,1.06689e-06
66.0714,1.0635e-06
66.1214,1.06012e-06
66.1714,1.05676e-06
66.2214,1.05342e-06
66.2714,1.05009e-06
66.3214,1.04677e-06
66.3714,1.04348e-06
66.4214,1.0402e-06
66.4714,1.03693e-06
66.5214,1.03368e-06
66.5714,1.03044e-06
66.6214,1.02722e-06
66.6714,1.02402e-06
66.7214,1.02083e-06
66.7714,1.01765e-06
66.8214,1.01449e-06
66.8714,1.01134e-06
66.9214,1.00821e-06
66.9714,1.0051e-06
67.0214,1.00199e-06
67.0714,9.98905e-07
67.1214,9.95831e-07
67.1714,9.92771e-07
67.2214,9.89726e-07
67.2714,9.86694e-07
67.3214,9.83676e-07
67.3714,9.80672e-07
67.4214,9.77682e-07
67.4714,9.74706e-07
67.5214,9.71743e-07
67.5714,9.68793e-07
67.6214,9.65857e-07
67.6714,9.62934e-07
67.7214,9.60025e-07
67.7714,9.57129e-07
67.8214,9.54245e-07
67.8714,9.51375e-07
67.9214,9.48518e-07
67.9714,9.45673e-07
68.0214,9.42842e-07
68.0714,9.40023e-07
68.1214,9.37217e-07
68.1714,9.34423e-07
68.2214,9.31641e-07
68.2714,9.28873e-07
68.3214,9.26116e-07
68.3714,9.23372e-07
68.4214,9.20639e-07
68.4714,9.17919e-07
68.5214,9.15211e-07
68.5714,9.12515e-07
68.6214,9.09831e-07
68.6714,9.07159e-07
68.7214,9.04498e-07
68.7714,9.01849e-07
68.8214,8.99212e-07
68.8714,8.96587e-07
68.9214,8.93972e-07
68.9714,8.91369e-07
69.0214,8.88778e-07
69.0714,8.86198e-07
69.1214,8.83629e-07
69.1714,8.81071e-07
69.2214,8.78524e-07
69.2714,8.75989e-07
69.3214,8.73464e-07
69.3714,8.7095e-07
69.4214,8.68447e-07
69.4714,8.65955e-07
69.5214,8.63474e-07
69.5714,8.61003e-07
69.6214,8.58542e-07
69.6714,8.56093e-07
69.7214,8.53653e-07
69.7714,8.51225e-07
69.8214,8.48806e-07
69.8714,8.46398e-07
69.9214,8.44e-07
69.9714,8.41612e-07
70.0214,8.39234e-07
70.0714,8.36867e-07
70.1214,8.34509e-07
70.1714,8.32162e-07
70.2214,8.29824e-07
70.2714,8.27496e-07
70.3214,8.25178e-07
70.3714,8.22869e-07
70.4214,8.20571e-07
70.4714,8.18282e-07
70.5214,8.16002e-07
70.5714,8.13732e-07
70.6214,8.11471e-07
70.6714,8.0922e-07
70.7214,8.06978e-07
70.7714,8.04746e-07
70.8214,8.02523e-07
70.8714,8.00308e-07
70.9214,7.98104e-07
70.9714,7.95908e-07
71.0214,7.93721e-07
71.0714,7.91543e-07
71.1214,7.89374e-07
71.1714,7.87214e-07
71.2214,7.85063e-07
71.2714,7.82921e-07
71.3214,7.80788e-07
71.3714,7.78663e-07
71.4214,7.76547e-07
71.4714,7.74439e-07
71.5214,7.7234e-07
71.5714,7.7025e-07
71.6214,7.68168e-07
71.6714,7.66094e-07
71.7214,7.64029e-07
71.7714,7.61972e-07
71.8214,7.59924e-07
71.8714,7.57884e-07
71.9214,7.55852e-07
71.9714,7.53828e-07
72.0214,7.51812e-07
72.0714,7.49804e-07
72.1214,7.47805e-07
72.1714,7.45813e-07
72.2214,7.43829e-07
72.2714,7.41853e-07
72.3214,7.39885e-07
72.3714,7.37925e-07
72.4214,7.35973e-07
72.4714,7.34028e-07
72.5214,7.32091e-07
72.5714,7.30162e-07
72.6214,7.2824e-07
72.6714,7.26326e-07
72.7214,7.2442e-07
72.7714,7.22521e-07
72.8214,7.20629e-07
72.8714,7.18745e-07
72.9214,7.16868e-07
72.9714,7.14999e-07
73.0214,7.13137e-07
73.0714,7.11282e-07
73.1214,7.09434e-07
73.1714,7.07594e-07
73.2214,7.0576e-07
73.2714,7.03934e-07
73.3214,7.02115e-07
73.3714,7.00303e-07
73.4214,6.98498e-07
73.4714,6.967e-07
73.5214,6.94909e-07
73.5714,6.93124e-07
73.6214,6.91347e-07
73.6714,6.89576e-07
73.7214,6.87813e-07
73.7714,6.86056e-07
73.8214,6.84305e-07
73.8714,6.82562e-07
73.9214,6.80825e-07
73.9714,6.79094e-07
74.0214,6.77371e-07
74.0714,6.75653e-07
74.1214,6.73943e-07
74.1714,6.72239e-07
74.2214,6.70541e-07
74.2714,6.6885e-07
74.3214,6.67165e-07
74.3714,6.65486e-07