File: mohanta_2013/200nm/raman/curve_1_fit.dat
507.428,0.0351726
507.528,0.0353901
507.628,0.0356083
507.728,0.0358273
507.828,0.0360471
507.928,0.0362676
508.028,0.0364889
508.128,0.036711
508.228,0.0369338
508.328,0.0371574
508.428,0.0373817
508.528,0.0376068
508.628,0.0378327
508.728,0.0380593
508.828,0.0382866
508.928,0.0385147
509.028,0.0387435
509.128,0.0389731
509.228,0.0392033
509.328,0.0394344
509.428,0.0396661
509.528,0.0398986
509.628,0.0401318
509.728,0.0403657
509.828,0.0406003
509.928,0.0408356
510.028,0.0410716
510.128,0.0413084
510.228,0.0415458
510.328,0.041784
510.428,0.0420228
510.528,0.0422623
510.628,0.0425025
510.728,0.0427434
510.828,0.0429849
510.928,0.0432272
511.028,0.0434701
511.128,0.0437136
511.228,0.0439579
511.328,0.0442028
511.428,0.0444483
511.528,0.0446945
511.628,0.0449413
511.728,0.0451888
511.828,0.0454369
511.928,0.0456856
512.028,0.045935
512.128,0.046185
512.228,0.0464356
512.328,0.0466868
512.428,0.0469386
512.528,0.0471911
512.628,0.0474441
512.728,0.0476977
512.828,0.0479519
512.928,0.0482067
513.028,0.0484621
513.128,0.048718
513.228,0.0489746
513.328,0.0492316
513.428,0.0494893
513.528,0.0497475
513.628,0.0500062
513.728,0.0502655
513.828,0.0505253
513.928,0.0507856
514.028,0.0510465
514.128,0.0513079
514.228,0.0515698
514.328,0.0518322
514.428,0.0520951
514.528,0.0523585
514.628,0.0526224
514.728,0.0528868
514.828,0.0531516
514.928,0.0534169
515.028,0.0536827
515.128,0.053949
515.228,0.0542157
515.328,0.0544829
515.428,0.0547504
515.528,0.0550185
515.628,0.0552869
515.728,0.0555558
515.828,0.0558251
515.928,0.0560948
516.028,0.0563649
516.128,0.0566354
516.228,0.0569063
516.328,0.0571775
516.428,0.0574492
516.528,0.0577212
516.628,0.0579935
516.728,0.0582662
516.828,0.0585393
516.928,0.0588127
517.028,0.0590864
517.128,0.0593605
517.228,0.0596348
517.328,0.0599095
517.428,0.0601845
517.528,0.0604598
517.628,0.0607353
517.728,0.0610112
517.828,0.0612873
517.928,0.0615637
518.028,0.0618403
518.128,0.0621172
518.228,0.0623944
518.328,0.0626717
518.428,0.0629493
518.528,0.0632271
518.628,0.0635051
518.728,0.0637833
518.828,0.0640618
518.928,0.0643404
519.028,0.0646191
519.128,0.0648981
519.228,0.0651772
519.328,0.0654564
519.428,0.0657358
519.528,0.0660154
519.628,0.0662951
519.728,0.0665748
519.828,0.0668547
519.928,0.0671347
520.028,0.0674148
520.128,0.067695
520.228,0.0679753
520.328,0.0682556
520.428,0.068536
520.528,0.0688164
520.628,0.0690969
520.728,0.0693774
520.828,0.069658
520.928,0.0699385
521.028,0.0702191
521.128,0.0704996
521.228,0.0707802
521.328,0.0710607
521.428,0.0713412
521.528,0.0716216
521.628,0.0719021
521.728,0.0721824
521.828,0.0724627
521.928,0.0727429
522.028,0.073023
522.128,0.073303
522.228,0.073583
522.328,0.0738628
522.428,0.0741425
522.528,0.074422
522.628,0.0747015
522.728,0.0749807
522.828,0.0752598
522.928,0.0755388
523.028,0.0758175
523.128,0.0760961
523.228,0.0763745
523.328,0.0766526
523.428,0.0769306
523.528,0.0772083
523.628,0.0774858
523.728,0.077763
523.828,0.07804
523.928,0.0783167
524.028,0.0785931
524.128,0.0788693
524.228,0.0791451
524.328,0.0794207
524.428,0.0796959
524.528,0.0799708
524.628,0.0802454
524.728,0.0805196
524.828,0.0807935
524.928,0.081067
525.028,0.0813401
525.128,0.0816128
525.228,0.0818852
525.328,0.0821571
525.428,0.0824286
525.528,0.0826997
525.628,0.0829704
525.728,0.0832406
525.828,0.0835104
525.928,0.0837797
526.028,0.0840485
526.128,0.0843168
526.228,0.0845846
526.328,0.084852
526.428,0.0851188
526.528,0.0853851
526.628,0.0856508
526.728,0.085916
526.828,0.0861806
526.928,0.0864447
527.028,0.0867082
527.128,0.0869711
527.228,0.0872334
527.328,0.0874951
527.428,0.0877562
527.528,0.0880166
527.628,0.0882764
527.728,0.0885356
527.828,0.0887941
527.928,0.0890519
528.028,0.0893091
528.128,0.0895655
528.228,0.0898213
528.328,0.0900763
528.428,0.0903307
528.528,0.0905843
528.628,0.0908371
528.728,0.0910892
528.828,0.0913406
528.928,0.0915911
529.028,0.0918409
529.128,0.0920899
529.228,0.0923381
529.328,0.0925855
529.428,0.092832
529.528,0.0930778
529.628,0.0933226
529.728,0.0935667
529.828,0.0938098
529.928,0.0940521
530.028,0.0942935
530.128,0.0945341
530.228,0.0947737
530.328,0.0950124
530.428,0.0952501
530.528,0.095487
530.628,0.0957229
530.728,0.0959578
530.828,0.0961918
530.928,0.0964248
531.028,0.0966569
531.128,0.0968879
531.228,0.097118
531.328,0.097347
531.428,0.097575
531.528,0.097802
531.628,0.0980279
531.728,0.0982528
531.828,0.0984766
531.928,0.0986994
532.028,0.0989211
532.128,0.0991416
532.228,0.0993611
532.328,0.0995795
532.428,0.0997968
532.528,0.100013
532.628,0.100228
532.728,0.100442
532.828,0.100655
532.928,0.100866
533.028,0.101076
533.128,0.101286
533.228,0.101494
533.328,0.1017
533.428,0.101906
533.528,0.10211
533.628,0.102314
533.728,0.102515
533.828,0.102716
533.928,0.102915
534.028,0.103114
534.128,0.103311
534.228,0.103506
534.328,0.1037
534.428,0.103893
534.528,0.104085
534.628,0.104275
534.728,0.104465
534.828,0.104652
534.928,0.104839
535.028,0.105024
535.128,0.105207
535.228,0.10539
535.328,0.105571
535.428,0.10575
535.528,0.105928
535.628,0.106105
535.728,0.106281
535.828,0.106455
535.928,0.106627
536.028,0.106798
536.128,0.106968
536.228,0.107136
536.328,0.107303
536.428,0.107468
536.528,0.107632
536.628,0.107794
536.728,0.107955
536.828,0.108115
536.928,0.108273
537.028,0.108429
537.128,0.108584
537.228,0.108737
537.328,0.108889
537.428,0.109039
537.528,0.109188
537.628,0.109335
537.728,0.109481
537.828,0.109625
537.928,0.109768
538.028,0.109909
538.128,0.110048
538.228,0.110186
538.328,0.110322
538.428,0.110457
538.528,0.11059
538.628,0.110721
538.728,0.110851
538.828,0.110979
538.928,0.111106
539.028,0.111231
539.128,0.111354
539.228,0.111475
539.328,0.111595
539.428,0.111714
539.528,0.11183
539.628,0.111945
539.728,0.112059
539.828,0.11217
539.928,0.11228
540.028,0.112388
540.128,0.112495
540.228,0.1126
540.328,0.112703
540.428,0.112804
540.528,0.112904
540.628,0.113002
540.728,0.113098
540.828,0.113193
540.928,0.113286
541.028,0.113377
541.128,0.113466
541.228,0.113553
541.328,0.113639
541.428,0.113723
541.528,0.113806
541.628,0.113886
541.728,0.113965
541.828,0.114042
541.928,0.114117
542.028,0.114191
542.128,0.114262
542.228,0.114332
542.328,0.1144
542.428,0.114467
542.528,0.114531
542.628,0.114594
542.728,0.114655
542.828,0.114714
542.928,0.114771
543.028,0.114827
543.128,0.11488
543.228,0.114932
543.328,0.114982
543.428,0.115031
543.528,0.115077
543.628,0.115122
543.728,0.115164
543.828,0.115205
543.928,0.115244
544.028,0.115282
544.128,0.115317
544.228,0.115351
544.328,0.115383
544.428,0.115413
544.528,0.115441
544.628,0.115467
544.728,0.115491
544.828,0.115514
544.928,0.115535
545.028,0.115554
545.128,0.115571
545.228,0.115586
545.328,0.115599
545.428,0.115611
545.528,0.11562
545.628,0.115628
545.728,0.115634
545.828,0.115638
545.928,0.11564
546.028,0.115641
546.128,0.115636
546.228,0.115626
546.328,0.11561
546.428,0.115589
546.528,0.115562
546.628,0.115529
546.728,0.115491
546.828,0.115447
546.928,0.115397
547.028,0.115342
547.128,0.115281
547.228,0.115215
547.328,0.115143
547.428,0.115065
547.528,0.114982
547.628,0.114894
547.728,0.114799
547.828,0.1147
547.928,0.114594
548.028,0.114483
548.128,0.114367
548.228,0.114245
548.328,0.114118
548.428,0.113985
548.528,0.113847
548.628,0.113704
548.728,0.113555
548.828,0.113401
548.928,0.113241
549.028,0.113077
549.128,0.112907
549.228,0.112731
549.328,0.112551
549.428,0.112365
549.528,0.112174
549.628,0.111978
549.728,0.111777
549.828,0.11157
549.928,0.111359
550.028,0.111142
550.128,0.110921
550.228,0.110695
550.328,0.110463
550.428,0.110227
550.528,0.109986
550.628,0.10974
550.728,0.109489
550.828,0.109233
550.928,0.108973
551.028,0.108708
551.128,0.108439
551.228,0.108164
551.328,0.107886
551.428,0.107602
551.528,0.107314
551.628,0.107022
551.728,0.106725
551.828,0.106424
551.928,0.106119
552.028,0.105809
552.128,0.105495
552.228,0.105176
552.328,0.104854
552.428,0.104527
552.528,0.104197
552.628,0.103862
552.728,0.103524
552.828,0.103181
552.928,0.102835
553.028,0.102484
553.128,0.10213
553.228,0.101772
553.328,0.101411
553.428,0.101045
553.528,0.100676
553.628,0.100304
553.728,0.0999281
553.828,0.0995488
553.928,0.099166
554.028,0.0987798
554.128,0.0983904
554.228,0.0979977
554.328,0.0976017
554.428,0.0972027
554.528,0.0968005
554.628,0.0963953
554.728,0.0959871
554.828,0.0955759
554.928,0.0951618
555.028,0.0947449
555.128,0.0943252
555.228,0.0939028
555.328,0.0934777
555.428,0.09305
555.528,0.0926197
555.628,0.0921869
555.728,0.0917516
555.828,0.0913139
555.928,0.0908739
556.028,0.0904315
556.128,0.0899869
556.228,0.0895401
556.328,0.0890912
556.428,0.0886402
556.528,0.0881872
556.628,0.0877321
556.728,0.0872752
556.828,0.0868164
556.928,0.0863558
557.028,0.0858934
557.128,0.0854294
557.228,0.0849636
557.328,0.0844963
557.428,0.0840275
557.528,0.0835571
557.628,0.0830854
557.728,0.0826122
557.828,0.0821378
557.928,0.081662
558.028,0.0811851
558.128,0.080707
558.228,0.0802278
558.328,0.0797475
558.428,0.0792662
558.528,0.078784
558.628,0.0783009
558.728,0.0778169
558.828,0.0773322
558.928,0.0768467
559.028,0.0763605
559.128,0.0758737
559.228,0.0753863
559.328,0.0748984
559.428,0.07441
559.528,0.0739211
559.628,0.0734319
559.728,0.0729424
559.828,0.0724525
559.928,0.0719625
560.028,0.0714722
560.128,0.0709819
560.228,0.0704914
560.328,0.0700009
560.428,0.0695105
560.528,0.0690201
560.628,0.0685298
560.728,0.0680396
560.828,0.0675497
560.928,0.06706
561.028,0.0665706
561.128,0.0660815
561.228,0.0655928
561.328,0.0651046
561.428,0.0646168
561.528,0.0641296
561.628,0.0636429
561.728,0.0631568
561.828,0.0626714
561.928,0.0621866
562.028,0.0617026
562.128,0.0612194
562.228,0.0607369
562.328,0.0602554
562.428,0.0597747
562.528,0.0592949
562.628,0.0588162
562.728,0.0583384
562.828,0.0578617
562.928,0.0573861
563.028,0.0569116
563.128,0.0564383
563.228,0.0559661
563.328,0.0554953
563.428,0.0550256
563.528,0.0545573
563.628,0.0540903
563.728,0.0536247
563.828,0.0531606
563.928,0.0526978
564.028,0.0522365
564.128,0.0517768
564.228,0.0513185
564.328,0.0508619
564.428,0.0504068
564.528,0.0499534
564.628,0.0495016
564.728,0.0490515
564.828,0.0486031
564.928,0.0481565
565.028,0.0477116
565.128,0.0472685
565.228,0.0468273
565.328,0.0463879
565.428,0.0459504
565.528,0.0455148
565.628,0.0450811
565.728,0.0446494
565.828,0.0442196
565.928,0.0437918
566.028,0.0433661
566.128,0.0429424
566.228,0.0425207
566.328,0.0421011
566.428,0.0416837
566.528,0.0412683
566.628,0.0408551
566.728,0.040444
566.828,0.0400352
566.928,0.0396285
567.028,0.039224
567.128,0.0388218
567.228,0.0384218
567.328,0.0380241
567.428,0.0376286
567.528,0.0372355
567.628,0.0368446
567.728,0.0364561
567.828,0.0360699
567.928,0.035686
568.028,0.0353045
568.128,0.0349254
568.228,0.0345487
568.328,0.0341743
568.428,0.0338024
568.528,0.0334328
568.628,0.0330657
568.728,0.0327011
568.828,0.0323388
568.928,0.031979
569.028,0.0316217
569.128,0.0312668
569.228,0.0309144
569.328,0.0305645
569.428,0.0302171
569.528,0.0298721
569.628,0.0295297
569.728,0.0291897
569.828,0.0288522
569.928,0.0285173
570.028,0.0281849
570.128,0.0278549
570.228,0.0275275
570.328,0.0272026
570.428,0.0268803
570.528,0.0265604
570.628,0.0262431
570.728,0.0259283
570.828,0.025616
570.928,0.0253062
571.028,0.024999
571.128,0.0246943
571.228,0.0243921
571.328,0.0240924
571.428,0.0237953
571.528,0.0235007
571.628,0.0232085
571.728,0.0229189
571.828,0.0226318
571.928,0.0223472
572.028,0.0220651
572.128,0.0217855
572.228,0.0215084
572.328,0.0212338
572.428,0.0209616
572.528,0.0206919
572.628,0.0204247
572.728,0.02016
572.828,0.0198977
572.928,0.0196379
573.028,0.0193805
573.128,0.0191256
573.228,0.0188731
573.328,0.018623
573.428,0.0183753
573.528,0.01813
573.628,0.0178872
573.728,0.0176467
573.828,0.0174086
573.928,0.0171729
574.028,0.0169395
574.128,0.0167085
574.228,0.0164799
574.328,0.0162535
574.428,0.0160295
574.528,0.0158078
574.628,0.0155885
574.728,0.0153714
574.828,0.0151566
574.928,0.014944
575.028,0.0147337
575.128,0.0145257
575.228,0.0143199
575.328,0.0141163
575.428,0.013915
575.528,0.0137158
575.628,0.0135189
575.728,0.0133241
575.828,0.0131315
575.928,0.012941
576.028,0.0127527
576.128,0.0125665
576.228,0.0123824
576.328,0.0122004
576.428,0.0120205
576.528,0.0118426
576.628,0.0116669
576.728,0.0114931
576.828,0.0113215
576.928,0.0111518
577.028,0.0109841
577.128,0.0108184
577.228,0.0106547
577.328,0.010493
577.428,0.0103332
577.528,0.0101754
577.628,0.0100195
577.728,0.00986544
577.828,0.00971331
577.928,0.00956306
578.028,0.00941468
578.128,0.00926814
578.228,0.00912344
578.328,0.00898056
578.428,0.00883949
578.528,0.0087002
578.628,0.00856269
578.728,0.00842695
578.828,0.00829294
578.928,0.00816068
579.028,0.00803012
579.128,0.00790127
579.228,0.00777411
579.328,0.00764862
579.428,0.00752479
579.528,0.0074026
579.628,0.00728203
579.728,0.00716309
579.828,0.00704574
579.928,0.00692997
580.028,0.00681577
580.128,0.00670313
580.228,0.00659202
580.328,0.00648244
580.428,0.00637437
580.528,0.0062678
580.628,0.0061627
580.728,0.00605908
580.828,0.0059569
580.928,0.00585616
581.028,0.00575684
581.128,0.00565893
581.228,0.00556241
581.328,0.00546727
581.428,0.0053735
581.528,0.00528107
581.628,0.00518998
581.728,0.00510022
581.828,0.00501176
581.928,0.00492459
582.028,0.00483871
582.128,0.00475409
582.228,0.00467072
582.328,0.00458858
582.428,0.00450768
582.528,0.00442798
582.628,0.00434948
582.728,0.00427216
582.828,0.00419601
582.928,0.00412102
583.028,0.00404716
583.128,0.00397444
583.228,0.00390284
583.328,0.00383233
583.428,0.00376292
583.528,0.00369458
583.628,0.00362731
583.728,0.00356108
583.828,0.0034959
583.928,0.00343174
584.028,0.00336859
584.128,0.00330645
584.228,0.00324529
584.328,0.0031851
584.428,0.00312588
584.528,0.00306762
584.628,0.00301029
584.728,0.00295388
584.828,0.00289839
584.928,0.00284381
585.028,0.00279012
585.128,0.0027373
585.228,0.00268536
585.328,0.00263427
585.428,0.00258403
585.528,0.00253462
585.628,0.00248604
585.728,0.00243826
585.828,0.00239129
585.928,0.00234511
586.028,0.00229971
586.128,0.00225507
586.228,0.0022112
586.328,0.00216807
586.428,0.00212568
586.528,0.00208402
586.628,0.00204307
586.728,0.00200283
586.828,0.00196329
586.928,0.00192443
587.028,0.00188625
587.128,0.00184873
587.228,0.00181188
587.328,0.00177567
587.428,0.0017401
587.528,0.00170516
587.628,0.00167084
587.728,0.00163713
587.828,0.00160402
587.928,0.00157151
588.028,0.00153958
588.128,0.00150822
588.228,0.00147743
588.328,0.0014472
588.428,0.00141751
588.528,0.00138837
588.628,0.00135976
588.728,0.00133168
588.828,0.00130411
588.928,0.00127705
589.028,0.00125049
589.128,0.00122442
589.228,0.00119884
589.328,0.00117373
589.428,0.0011491
589.528,0.00112492
589.628,0.0011012
589.728,0.00107793
589.828,0.0010551
589.928,0.0010327
590.028,0.00101073
590.128,0.000989176
590.228,0.000968035
590.328,0.000947299
590.428,0.000926962
590.528,0.000907018
590.628,0.000887459
590.728,0.00086828
590.828,0.000849473
590.928,0.000831033
591.028,0.000812954
591.128,0.000795229
591.228,0.000777853
591.328,0.000760819
591.428,0.000744121
591.528,0.000727755
591.628,0.000711713
591.728,0.000695992
591.828,0.000680584
591.928,0.000665485
592.028,0.000650689
592.128,0.000636191
592.228,0.000621985
592.328,0.000608067
592.428,0.000594431
592.528,0.000581073
592.628,0.000567987
592.728,0.000555168
592.828,0.000542613
592.928,0.000530315
593.028,0.000518271
593.128,0.000506475
593.228,0.000494924
593.328,0.000483613
593.428,0.000472537
593.528,0.000461692
593.628,0.000451074
593.728,0.000440678
593.828,0.000430501
593.928,0.000420539
594.028,0.000410787
594.128,0.000401241
594.228,0.000391899
594.328,0.000382755
594.428,0.000373806
594.528,0.000365048
594.628,0.000356478
594.728,0.000348093
594.828,0.000339888
594.928,0.00033186
595.028,0.000324006
595.128,0.000316322
595.228,0.000308805
595.328,0.000301453
595.428,0.000294261
595.528,0.000287226
595.628,0.000280346
595.728,0.000273618
595.828,0.000267037
595.928,0.000260603
596.028,0.000254311
596.128,0.000248158
596.228,0.000242143
596.328,0.000236262
596.428,0.000230513
596.528,0.000224892
596.628,0.000219398
596.728,0.000214027
596.828,0.000208778
596.928,0.000203648
597.028,0.000198634
597.128,0.000193734
597.228,0.000188945
597.328,0.000184266
597.428,0.000179694
597.528,0.000175227
597.628,0.000170862
597.728,0.000166599
597.828,0.000162433
597.928,0.000158364
598.028,0.000154389
598.128,0.000150507
598.228,0.000146715
598.328,0.000143012
598.428,0.000139395
598.528,0.000135864
598.628,0.000132415
598.728,0.000129047
598.828,0.000125759
598.928,0.000122549
599.028,0.000119415
599.128,0.000116355
599.228,0.000113368
599.328,0.000110453
599.428,0.000107607
599.528,0.000104829
599.628,0.000102118
599.728,9.94725e-05
599.828,9.68906e-05
599.928,9.43711e-05
600.028,9.19127e-05
600.128,8.95138e-05
600.228,8.71734e-05
600.328,8.48899e-05
600.428,8.26623e-05
600.528,8.04892e-05
600.628,7.83693e-05
600.728,7.63016e-05
600.828,7.42848e-05
600.928,7.23177e-05
601.028,7.03993e-05
601.128,6.85285e-05
601.228,6.67041e-05
601.328,6.49251e-05
601.428,6.31904e-05
601.528,6.14991e-05
601.628,5.98501e-05
601.728,5.82425e-05
601.828,5.66753e-05
601.928,5.51476e-05
602.028,5.36584e-05
602.128,5.22069e-05
602.228,5.07922e-05
602.328,4.94134e-05
602.428,4.80697e-05
602.528,4.67602e-05
602.628,4.54842e-05
602.728,4.42408e-05
602.828,4.30293e-05
602.928,4.18489e-05
603.028,4.0699e-05
603.128,3.95787e-05
603.228,3.84873e-05
603.328,3.74242e-05
603.428,3.63887e-05
603.528,3.53802e-05
603.628,3.43979e-05
603.728,3.34412e-05
603.828,3.25095e-05
603.928,3.16023e-05
604.028,3.07189e-05
604.128,2.98587e-05
604.228,2.90212e-05
604.328,2.82058e-05
604.428,2.74119e-05
604.528,2.66391e-05
604.628,2.58868e-05
604.728,2.51546e-05
604.828,2.44418e-05
604.928,2.37481e-05
605.028,2.3073e-05
605.128,2.24159e-05
605.228,2.17765e-05
605.328,2.11543e-05
605.428,2.05489e-05
605.528,1.99598e-05
605.628,1.93866e-05
605.728,1.8829e-05
605.828,1.82866e-05
605.928,1.77589e-05
606.028,1.72456e-05
606.128,1.67463e-05
606.228,1.62606e-05
606.328,1.57883e-05
606.428,1.5329e-05
606.528,1.48822e-05
606.628,1.44478e-05
606.728,1.40254e-05
606.828,1.36147e-05
606.928,1.32153e-05
607.028,1.28271e-05
607.128,1.24496e-05
607.228,1.20827e-05
607.328,1.1726e-05
607.428,1.13792e-05
607.528,1.10422e-05
607.628,1.07147e-05
607.728,1.03963e-05
607.828,1.00869e-05
607.928,9.78628e-06
608.028,9.49412e-06
608.128,9.21023e-06
608.228,8.93439e-06
608.328,8.66639e-06
608.428,8.40602e-06
608.528,8.15308e-06
608.628,7.90735e-06
608.728,7.66866e-06
608.828,7.43681e-06
608.928,7.21162e-06
609.028,6.9929e-06
609.128,6.78049e-06
609.228,6.5742e-06
609.328,6.37388e-06
609.428,6.17937e-06
609.528,5.99049e-06
609.628,5.80711e-06
609.728,5.62906e-06
609.828,5.4562e-06
609.928,5.2884e-06
610.028,5.1255e-06
610.128,4.96738e-06
610.228,4.8139e-06
610.328,4.66494e-06
610.428,4.52036e-06
610.528,4.38006e-06
610.628,4.24389e-06
610.728,4.11176e-06
610.828,3.98355e-06
610.928,3.85915e-06
611.028,3.73845e-06
611.128,3.62135e-06
611.228,3.50774e-06
611.328,3.39754e-06
611.428,3.29063e-06
611.528,3.18693e-06
611.628,3.08635e-06
611.728,2.9888e-06
611.828,2.89419e-06
611.928,2.80244e-06
612.028,2.71346e-06
612.128,2.62718e-06
612.228,2.54352e-06
612.328,2.4624e-06
612.428,2.38375e-06
612.528,2.3075e-06
612.628,2.23359e-06