File: mohanta_2013/200nm/raman/curve_2_fit.dat
507.428,0.0111065
507.528,0.0111421
507.628,0.0111779
507.728,0.0112139
507.828,0.0112501
507.928,0.0112864
508.028,0.011323
508.128,0.0113597
508.228,0.0113965
508.328,0.0114336
508.428,0.0114708
508.528,0.0115082
508.628,0.0115458
508.728,0.0115836
508.828,0.0116215
508.928,0.0116596
509.028,0.011698
509.128,0.0117365
509.228,0.0117752
509.328,0.0118141
509.428,0.0118532
509.528,0.0118924
509.628,0.0119319
509.728,0.0119716
509.828,0.0120114
509.928,0.0120515
510.028,0.0120917
510.128,0.0121322
510.228,0.0121728
510.328,0.0122137
510.428,0.0122548
510.528,0.012296
510.628,0.0123375
510.728,0.0123792
510.828,0.0124211
510.928,0.0124632
511.028,0.0125055
511.128,0.012548
511.228,0.0125908
511.328,0.0126337
511.428,0.0126769
511.528,0.0127203
511.628,0.0127639
511.728,0.0128078
511.828,0.0128519
511.928,0.0128961
512.028,0.0129407
512.128,0.0129854
512.228,0.0130304
512.328,0.0130756
512.428,0.013121
512.528,0.0131667
512.628,0.0132126
512.728,0.0132588
512.828,0.0133052
512.928,0.0133518
513.028,0.0133987
513.128,0.0134458
513.228,0.0134932
513.328,0.0135408
513.428,0.0135886
513.528,0.0136367
513.628,0.0136851
513.728,0.0137337
513.828,0.0137826
513.928,0.0138318
514.028,0.0138812
514.128,0.0139308
514.228,0.0139807
514.328,0.0140309
514.428,0.0140814
514.528,0.0141321
514.628,0.0141831
514.728,0.0142344
514.828,0.0142859
514.928,0.0143377
515.028,0.0143898
515.128,0.0144422
515.228,0.0144949
515.328,0.0145479
515.428,0.0146011
515.528,0.0146546
515.628,0.0147084
515.728,0.0147626
515.828,0.014817
515.928,0.0148717
516.028,0.0149267
516.128,0.014982
516.228,0.0150376
516.328,0.0150935
516.428,0.0151497
516.528,0.0152063
516.628,0.0152631
516.728,0.0153203
516.828,0.0153778
516.928,0.0154356
517.028,0.0154937
517.128,0.0155522
517.228,0.0156109
517.328,0.0156701
517.428,0.0157295
517.528,0.0157893
517.628,0.0158494
517.728,0.0159098
517.828,0.0159706
517.928,0.0160318
518.028,0.0160933
518.128,0.0161551
518.228,0.0162173
518.328,0.0162798
518.428,0.0163427
518.528,0.016406
518.628,0.0164696
518.728,0.0165336
518.828,0.0165979
518.928,0.0166627
519.028,0.0167278
519.128,0.0167933
519.228,0.0168591
519.328,0.0169254
519.428,0.016992
519.528,0.017059
519.628,0.0171264
519.728,0.0171942
519.828,0.0172624
519.928,0.017331
520.028,0.0174
520.128,0.0174694
520.228,0.0175393
520.328,0.0176095
520.428,0.0176801
520.528,0.0177512
520.628,0.0178227
520.728,0.0178946
520.828,0.017967
520.928,0.0180398
521.028,0.018113
521.128,0.0181867
521.228,0.0182608
521.328,0.0183353
521.428,0.0184103
521.528,0.0184858
521.628,0.0185617
521.728,0.0186381
521.828,0.0187149
521.928,0.0187922
522.028,0.01887
522.128,0.0189482
522.228,0.019027
522.328,0.0191062
522.428,0.0191859
522.528,0.0192661
522.628,0.0193468
522.728,0.019428
522.828,0.0195097
522.928,0.0195919
523.028,0.0196746
523.128,0.0197579
523.228,0.0198416
523.328,0.0199259
523.428,0.0200107
523.528,0.0200961
523.628,0.020182
523.728,0.0202684
523.828,0.0203554
523.928,0.0204429
524.028,0.020531
524.128,0.0206196
524.228,0.0207088
524.328,0.0207986
524.428,0.020889
524.528,0.0209799
524.628,0.0210714
524.728,0.0211635
524.828,0.0212562
524.928,0.0213495
525.028,0.0214434
525.128,0.0215379
525.228,0.0216331
525.328,0.0217288
525.428,0.0218252
525.528,0.0219222
525.628,0.0220198
525.728,0.0221181
525.828,0.0222171
525.928,0.0223166
526.028,0.0224169
526.128,0.0225178
526.228,0.0226194
526.328,0.0227216
526.428,0.0228245
526.528,0.0229282
526.628,0.0230325
526.728,0.0231375
526.828,0.0232432
526.928,0.0233497
527.028,0.0234568
527.128,0.0235647
527.228,0.0236733
527.328,0.0237826
527.428,0.0238927
527.528,0.0240036
527.628,0.0241152
527.728,0.0242275
527.828,0.0243407
527.928,0.0244546
528.028,0.0245693
528.128,0.0246847
528.228,0.024801
528.328,0.0249181
528.428,0.025036
528.528,0.0251548
528.628,0.0252743
528.728,0.0253947
528.828,0.0255159
528.928,0.025638
529.028,0.025761
529.128,0.0258848
529.228,0.0260095
529.328,0.0261351
529.428,0.0262615
529.528,0.0263889
529.628,0.0265172
529.728,0.0266463
529.828,0.0267764
529.928,0.0269075
530.028,0.0270395
530.128,0.0271724
530.228,0.0273063
530.328,0.0274412
530.428,0.027577
530.528,0.0277139
530.628,0.0278517
530.728,0.0279905
530.828,0.0281304
530.928,0.0282713
531.028,0.0284132
531.128,0.0285561
531.228,0.0287002
531.328,0.0288452
531.428,0.0289914
531.528,0.0291386
531.628,0.029287
531.728,0.0294364
531.828,0.029587
531.928,0.0297387
532.028,0.0298915
532.128,0.0300455
532.228,0.0302006
532.328,0.030357
532.428,0.0305145
532.528,0.0306732
532.628,0.0308331
532.728,0.0309942
532.828,0.0311566
532.928,0.0313202
533.028,0.031485
533.128,0.0316512
533.228,0.0318186
533.328,0.0319873
533.428,0.0321573
533.528,0.0323287
533.628,0.0325013
533.728,0.0326754
533.828,0.0328508
533.928,0.0330275
534.028,0.0332057
534.128,0.0333852
534.228,0.0335662
534.328,0.0337486
534.428,0.0339325
534.528,0.0341178
534.628,0.0343046
534.728,0.0344929
534.828,0.0346827
534.928,0.034874
535.028,0.0350668
535.128,0.0352613
535.228,0.0354572
535.328,0.0356548
535.428,0.035854
535.528,0.0360548
535.628,0.0362572
535.728,0.0364613
535.828,0.0366671
535.928,0.0368745
536.028,0.0370837
536.128,0.0372946
536.228,0.0375072
536.328,0.0377216
536.428,0.0379378
536.528,0.0381558
536.628,0.0383756
536.728,0.0385973
536.828,0.0388208
536.928,0.0390462
537.028,0.0392734
537.128,0.0395027
537.228,0.0397338
537.328,0.0399669
537.428,0.040202
537.528,0.0404391
537.628,0.0406783
537.728,0.0409195
537.828,0.0411627
537.928,0.0414081
538.028,0.0416556
538.128,0.0419052
538.228,0.042157
538.328,0.042411
538.428,0.0426672
538.528,0.0429256
538.628,0.0431863
538.728,0.0434493
538.828,0.0437146
538.928,0.0439823
539.028,0.0442523
539.128,0.0445247
539.228,0.0447996
539.328,0.0450769
539.428,0.0453566
539.528,0.0456389
539.628,0.0459237
539.728,0.0462111
539.828,0.0465011
539.928,0.0467937
540.028,0.0470889
540.128,0.0473869
540.228,0.0476875
540.328,0.0479909
540.428,0.0482971
540.528,0.0486061
540.628,0.0489179
540.728,0.0492326
540.828,0.0495503
540.928,0.0498708
541.028,0.0501944
541.128,0.0505209
541.228,0.0508506
541.328,0.0511833
541.428,0.0515191
541.528,0.0518581
541.628,0.0522003
541.728,0.0525457
541.828,0.0528944
541.928,0.0532464
542.028,0.0536018
542.128,0.0539605
542.228,0.0543227
542.328,0.0546884
542.428,0.0550576
542.528,0.0554303
542.628,0.0558067
542.728,0.0561867
542.828,0.0565704
542.928,0.0569578
543.028,0.0573491
543.128,0.0577441
543.228,0.058143
543.328,0.0585459
543.428,0.0589527
543.528,0.0593636
543.628,0.0597785
543.728,0.0601976
543.828,0.0606208
543.928,0.0610482
544.028,0.0614799
544.128,0.061916
544.228,0.0623564
544.328,0.0628013
544.428,0.0632507
544.528,0.0637046
544.628,0.0641632
544.728,0.0646264
544.828,0.0650943
544.928,0.0655671
545.028,0.0660446
545.128,0.0665271
545.228,0.0670146
545.328,0.0675071
545.428,0.0680047
545.528,0.0685074
545.628,0.0690154
545.728,0.0695287
545.828,0.0700473
545.928,0.0705714
546.028,0.071101
546.128,0.0716362
546.228,0.072177
546.328,0.0727235
546.428,0.0732758
546.528,0.073834
546.628,0.0743982
546.728,0.0749683
546.828,0.0755446
546.928,0.076127
547.028,0.0767157
547.128,0.0773108
547.228,0.0779122
547.328,0.0785202
547.428,0.0791348
547.528,0.079756
547.628,0.080384
547.728,0.0810189
547.828,0.0816607
547.928,0.0823096
548.028,0.0829656
548.128,0.0836288
548.228,0.0842993
548.328,0.0849772
548.428,0.0856627
548.528,0.0863558
548.628,0.0870565
548.728,0.0877651
548.828,0.0884817
548.928,0.0892062
549.028,0.0899388
549.128,0.0906797
549.228,0.091429
549.328,0.0921867
549.428,0.0929529
549.528,0.0937279
549.628,0.0945116
549.728,0.0953043
549.828,0.0961059
549.928,0.0969167
550.028,0.0977368
550.128,0.0985663
550.228,0.0994053
550.328,0.100254
550.428,0.101112
550.528,0.101981
550.628,0.102859
550.728,0.103747
550.828,0.104646
550.928,0.105555
551.028,0.106475
551.128,0.107406
551.228,0.108347
551.328,0.109299
551.428,0.110263
551.528,0.111237
551.628,0.112223
551.728,0.113221
551.828,0.11423
551.928,0.115251
552.028,0.116285
552.128,0.11733
552.228,0.118388
552.328,0.119458
552.428,0.120541
552.528,0.121636
552.628,0.122745
552.728,0.123866
552.828,0.125001
552.928,0.12615
553.028,0.127312
553.128,0.128488
553.228,0.129677
553.328,0.130881
553.428,0.132099
553.528,0.133332
553.628,0.134579
553.728,0.135841
553.828,0.137118
553.928,0.13841
554.028,0.139718
554.128,0.141041
554.228,0.142379
554.328,0.143734
554.428,0.145104
554.528,0.146491
554.628,0.147894
554.728,0.149314
554.828,0.150751
554.928,0.152204
555.028,0.153674
555.128,0.155162
555.228,0.156667
555.328,0.15819
555.428,0.159731
555.528,0.161289
555.628,0.162866
555.728,0.164461
555.828,0.166075
555.928,0.167707
556.028,0.169358
556.128,0.171028
556.228,0.172717
556.328,0.174425
556.428,0.176153
556.528,0.1779
556.628,0.179667
556.728,0.181454
556.828,0.183261
556.928,0.185088
557.028,0.186935
557.128,0.188802
557.228,0.19069
557.328,0.192598
557.428,0.194527
557.528,0.196477
557.628,0.198448
557.728,0.200439
557.828,0.202452
557.928,0.204485
558.028,0.206539
558.128,0.208615
558.228,0.210711
558.328,0.212829
558.428,0.214968
558.528,0.217128
558.628,0.219309
558.728,0.22151
558.828,0.223733
558.928,0.225977
559.028,0.228241
559.128,0.230526
559.228,0.232831
559.328,0.235157
559.428,0.237503
559.528,0.239869
559.628,0.242255
559.728,0.244661
559.828,0.247085
559.928,0.249529
560.028,0.251991
560.128,0.254472
560.228,0.256971
560.328,0.259487
560.428,0.262021
560.528,0.264571
560.628,0.267138
560.728,0.26972
560.828,0.272318
560.928,0.27493
561.028,0.277557
561.128,0.280196
561.228,0.282849
561.328,0.285514
561.428,0.28819
561.528,0.290876
561.628,0.293572
561.728,0.296277
561.828,0.29899
561.928,0.30171
562.028,0.304436
562.128,0.307167
562.228,0.309902
562.328,0.312639
562.428,0.315378
562.528,0.318118
562.628,0.320856
562.728,0.323593
562.828,0.326326
562.928,0.329055
563.028,0.331777
563.128,0.334492
563.228,0.337197
563.328,0.339892
563.428,0.342574
563.528,0.345243
563.628,0.347896
563.728,0.350532
563.828,0.35315
563.928,0.355746
564.028,0.35832
564.128,0.36087
564.228,0.363394
564.328,0.36589
564.428,0.368356
564.528,0.37079
564.628,0.373191
564.728,0.375556
564.828,0.377883
564.928,0.380171
565.028,0.382417
565.128,0.38462
565.228,0.386778
565.328,0.388888
565.428,0.390949
565.528,0.392959
565.628,0.394915
565.728,0.396816
565.828,0.398661
565.928,0.400446
566.028,0.402171
566.128,0.403833
566.228,0.405432
566.328,0.406964
566.428,0.408429
566.528,0.409825
566.628,0.41115
566.728,0.412403
566.828,0.413583
566.928,0.414688
567.028,0.415717
567.128,0.416669
567.228,0.417542
567.328,0.418336
567.428,0.41905
567.528,0.419683
567.628,0.420233
567.728,0.420702
567.828,0.421087
567.928,0.421389
568.028,0.421607
568.128,0.421741
568.228,0.42179
568.328,0.421754
568.428,0.421629
568.528,0.421416
568.628,0.421116
568.728,0.420728
568.828,0.420253
568.928,0.419692
569.028,0.419045
569.128,0.418313
569.228,0.417497
569.328,0.416599
569.428,0.415618
569.528,0.414557
569.628,0.413416
569.728,0.412197
569.828,0.410902
569.928,0.409532
570.028,0.408088
570.128,0.406572
570.228,0.404986
570.328,0.403331
570.428,0.40161
570.528,0.399824
570.628,0.397975
570.728,0.396066
570.828,0.394098
570.928,0.392073
571.028,0.389993
571.128,0.38786
571.228,0.385677
571.328,0.383445
571.428,0.381167
571.528,0.378844
571.628,0.376479
571.728,0.374075
571.828,0.371632
571.928,0.369153
572.028,0.36664
572.128,0.364096
572.228,0.361521
572.328,0.358919
572.428,0.356291
572.528,0.35364
572.628,0.350966
572.728,0.348272
572.828,0.34556
572.928,0.342832
573.028,0.340089
573.128,0.337333
573.228,0.334565
573.328,0.331789
573.428,0.329004
573.528,0.326212
573.628,0.323416
573.728,0.320616
573.828,0.317815
573.928,0.315012
574.028,0.31221
574.128,0.30941
574.228,0.306613
574.328,0.303821
574.428,0.301034
574.528,0.298253
574.628,0.29548
574.728,0.292715
574.828,0.28996
574.928,0.287216
575.028,0.284483
575.128,0.281762
575.228,0.279053
575.328,0.276359
575.428,0.273679
575.528,0.271014
575.628,0.268364
575.728,0.265731
575.828,0.263115
575.928,0.260515
576.028,0.257934
576.128,0.255371
576.228,0.252827
576.328,0.250302
576.428,0.247796
576.528,0.24531
576.628,0.242845
576.728,0.240399
576.828,0.237975
576.928,0.235571
577.028,0.233188
577.128,0.230827
577.228,0.228487
577.328,0.226168
577.428,0.223872
577.528,0.221597
577.628,0.219344
577.728,0.217113
577.828,0.214904
577.928,0.212717
578.028,0.210552
578.128,0.208409
578.228,0.206288
578.328,0.204189
578.428,0.202112
578.528,0.200058
578.628,0.198025
578.728,0.196014
578.828,0.194024
578.928,0.192057
579.028,0.190111
579.128,0.188186
579.228,0.186283
579.328,0.184401
579.428,0.18254
579.528,0.1807
579.628,0.178881
579.728,0.177082
579.828,0.175305
579.928,0.173547
580.028,0.17181
580.128,0.170093
580.228,0.168396
580.328,0.166718
580.428,0.16506
580.528,0.163422
580.628,0.161802
580.728,0.160202
580.828,0.158621
580.928,0.157058
581.028,0.155514
581.128,0.153988
581.228,0.15248
581.328,0.15099
581.428,0.149518
581.528,0.148063
581.628,0.146626
581.728,0.145206
581.828,0.143803
581.928,0.142417
582.028,0.141047
582.128,0.139694
582.228,0.138357
582.328,0.137036
582.428,0.135731
582.528,0.134441
582.628,0.133167
582.728,0.131908
582.828,0.130665
582.928,0.129436
583.028,0.128222
583.128,0.127022
583.228,0.125837
583.328,0.124666
583.428,0.12351
583.528,0.122367
583.628,0.121237
583.728,0.120121
583.828,0.119019
583.928,0.117929
584.028,0.116853
584.128,0.115789
584.228,0.114738
584.328,0.1137
584.428,0.112674
584.528,0.11166
584.628,0.110658
584.728,0.109668
584.828,0.10869
584.928,0.107723
585.028,0.106767
585.128,0.105823
585.228,0.10489
585.328,0.103968
585.428,0.103057
585.528,0.102156
585.628,0.101266
585.728,0.100386
585.828,0.0995163
585.928,0.0986569
586.028,0.0978074
586.128,0.0969677
586.228,0.0961378
586.328,0.0953174
586.428,0.0945065
586.528,0.093705
586.628,0.0929126
586.728,0.0921293
586.828,0.0913549
586.928,0.0905894
587.028,0.0898326
587.128,0.0890844
587.228,0.0883447
587.328,0.0876134
587.428,0.0868903
587.528,0.0861754
587.628,0.0854685
587.728,0.0847695
587.828,0.0840784
587.928,0.0833951
588.028,0.0827193
588.128,0.0820511
588.228,0.0813902
588.328,0.0807368
588.428,0.0800905
588.528,0.0794514
588.628,0.0788193
588.728,0.0781941
588.828,0.0775758
588.928,0.0769643
589.028,0.0763594
589.128,0.0757611
589.228,0.0751694
589.328,0.074584
589.428,0.074005
589.528,0.0734322
589.628,0.0728655
589.728,0.072305
589.828,0.0717504
589.928,0.0712018
590.028,0.0706591
590.128,0.0701221
590.228,0.0695908
590.328,0.0690651
590.428,0.068545
590.528,0.0680303
590.628,0.0675211
590.728,0.0670172
590.828,0.0665186
590.928,0.0660251
591.028,0.0655368
591.128,0.0650536
591.228,0.0645754
591.328,0.0641021
591.428,0.0636337
591.528,0.0631701
591.628,0.0627113
591.728,0.0622572
591.828,0.0618077
591.928,0.0613628
592.028,0.0609223
592.128,0.0604864
592.228,0.0600549
592.328,0.0596277
592.428,0.0592048
592.528,0.0587861
592.628,0.0583716
592.728,0.0579613
592.828,0.0575551
592.928,0.0571529
593.028,0.0567546
593.128,0.0563603
593.228,0.0559699
593.328,0.0555834
593.428,0.0552006
593.528,0.0548216
593.628,0.0544462
593.728,0.0540745
593.828,0.0537065
593.928,0.053342
594.028,0.052981
594.128,0.0526235
594.228,0.0522694
594.328,0.0519187
594.428,0.0515714
594.528,0.0512274
594.628,0.0508867
594.728,0.0505492
594.828,0.0502149
594.928,0.0498837
595.028,0.0495557
595.128,0.0492308
595.228,0.0489089
595.328,0.04859
595.428,0.0482741
595.528,0.0479611
595.628,0.0476511
595.728,0.0473439
595.828,0.0470395
595.928,0.046738
596.028,0.0464392
596.128,0.0461431
596.228,0.0458498
596.328,0.0455591
596.428,0.0452711
596.528,0.0449857
596.628,0.0447029
596.728,0.0444227
596.828,0.0441449
596.928,0.0438697
597.028,0.0435969
597.128,0.0433266
597.228,0.0430587
597.328,0.0427931
597.428,0.04253
597.528,0.0422691
597.628,0.0420106
597.728,0.0417543
597.828,0.0415003
597.928,0.0412485
598.028,0.0409989
598.128,0.0407515
598.228,0.0405063
598.328,0.0402632
598.428,0.0400222
598.528,0.0397832
598.628,0.0395464
598.728,0.0393115
598.828,0.0390787
598.928,0.0388479
599.028,0.038619
599.128,0.0383921
599.228,0.0381671
599.328,0.0379441
599.428,0.0377229
599.528,0.0375036
599.628,0.0372861
599.728,0.0370704
599.828,0.0368566
599.928,0.0366446
600.028,0.0364343
600.128,0.0362257
600.228,0.0360189
600.328,0.0358138
600.428,0.0356104
600.528,0.0354087
600.628,0.0352086
600.728,0.0350102
600.828,0.0348134
600.928,0.0346182
601.028,0.0344246
601.128,0.0342325
601.228,0.034042
601.328,0.0338531
601.428,0.0336657
601.528,0.0334797
601.628,0.0332953
601.728,0.0331124
601.828,0.0329309
601.928,0.0327508
602.028,0.0325722
602.128,0.032395
602.228,0.0322193
602.328,0.0320449
602.428,0.0318718
602.528,0.0317002
602.628,0.0315298
602.728,0.0313609
602.828,0.0311932
602.928,0.0310268
603.028,0.0308617
603.128,0.030698
603.228,0.0305354
603.328,0.0303742
603.428,0.0302141
603.528,0.0300553
603.628,0.0298977
603.728,0.0297414
603.828,0.0295862
603.928,0.0294322
604.028,0.0292793
604.128,0.0291277
604.228,0.0289771
604.328,0.0288277
604.428,0.0286795
604.528,0.0285323
604.628,0.0283863
604.728,0.0282413
604.828,0.0280974
604.928,0.0279546
605.028,0.0278128
605.128,0.0276721
605.228,0.0275325
605.328,0.0273939
605.428,0.0272563
605.528,0.0271197
605.628,0.0269841
605.728,0.0268495
605.828,0.0267158
605.928,0.0265832
606.028,0.0264515
606.128,0.0263208
606.228,0.026191
606.328,0.0260621
606.428,0.0259342
606.528,0.0258072
606.628,0.0256811
606.728,0.0255559
606.828,0.0254316
606.928,0.0253082
607.028,0.0251857
607.128,0.025064
607.228,0.0249432
607.328,0.0248232
607.428,0.0247041
607.528,0.0245859
607.628,0.0244684
607.728,0.0243518
607.828,0.024236
607.928,0.024121
608.028,0.0240068
608.128,0.0238934
608.228,0.0237808
608.328,0.023669
608.428,0.0235579
608.528,0.0234476
608.628,0.0233381
608.728,0.0232293
608.828,0.0231212
608.928,0.0230139
609.028,0.0229073
609.128,0.0228015
609.228,0.0226964
609.328,0.0225919
609.428,0.0224882
609.528,0.0223852
609.628,0.0222829
609.728,0.0221812
609.828,0.0220803
609.928,0.02198
610.028,0.0218804
610.128,0.0217814
610.228,0.0216831
610.328,0.0215855
610.428,0.0214885
610.528,0.0213921
610.628,0.0212964
610.728,0.0212013
610.828,0.0211069
610.928,0.021013
611.028,0.0209198
611.128,0.0208272
611.228,0.0207352
611.328,0.0206437
611.428,0.0205529
611.528,0.0204627
611.628,0.020373
611.728,0.0202839
611.828,0.0201954
611.928,0.0201075
612.028,0.0200201
612.128,0.0199333
612.228,0.019847
612.328,0.0197613
612.428,0.0196761
612.528,0.0195915
612.628,0.0195074