File: mohanta_2013/200nm/raman/curve_total_fit.dat
507.428,0.0107247
507.528,0.0109778
507.628,0.0112318
507.728,0.0114868
507.828,0.0117428
507.928,0.0119997
508.028,0.0122575
508.128,0.0125162
508.228,0.0127759
508.328,0.0130366
508.428,0.0132981
508.528,0.0135606
508.628,0.0138241
508.728,0.0140884
508.828,0.0143537
508.928,0.0146199
509.028,0.0148871
509.128,0.0151551
509.228,0.0154241
509.328,0.015694
509.428,0.0159649
509.528,0.0162366
509.628,0.0165093
509.728,0.0167828
509.828,0.0170573
509.928,0.0173327
510.028,0.017609
510.128,0.0178862
510.228,0.0181643
510.328,0.0184433
510.428,0.0187231
510.528,0.0190039
510.628,0.0192856
510.728,0.0195682
510.828,0.0198516
510.928,0.020136
511.028,0.0204212
511.128,0.0207073
511.228,0.0209942
511.328,0.0212821
511.428,0.0215708
511.528,0.0218604
511.628,0.0221509
511.728,0.0224422
511.828,0.0227343
511.928,0.0230274
512.028,0.0233213
512.128,0.023616
512.228,0.0239116
512.328,0.024208
512.428,0.0245053
512.528,0.0248034
512.628,0.0251023
512.728,0.0254021
512.828,0.0257027
512.928,0.0260041
513.028,0.0263064
513.128,0.0266094
513.228,0.0269133
513.328,0.027218
513.428,0.0275235
513.528,0.0278298
513.628,0.0281369
513.728,0.0284448
513.828,0.0287535
513.928,0.029063
514.028,0.0293732
514.128,0.0296843
514.228,0.0299961
514.328,0.0303087
514.428,0.0306221
514.528,0.0309362
514.628,0.0312511
514.728,0.0315667
514.828,0.0318831
514.928,0.0322003
515.028,0.0325182
515.128,0.0328368
515.228,0.0331562
515.328,0.0334763
515.428,0.0337971
515.528,0.0341187
515.628,0.034441
515.728,0.0347639
515.828,0.0350876
515.928,0.035412
516.028,0.0357372
516.128,0.036063
516.228,0.0363894
516.328,0.0367166
516.428,0.0370445
516.528,0.037373
516.628,0.0377022
516.728,0.0380321
516.828,0.0383627
516.928,0.0386939
517.028,0.0390257
517.128,0.0393582
517.228,0.0396914
517.328,0.0400252
517.428,0.0403596
517.528,0.0406947
517.628,0.0410303
517.728,0.0413666
517.828,0.0417035
517.928,0.0420411
518.028,0.0423792
518.128,0.0427179
518.228,0.0430572
518.328,0.0433971
518.428,0.0437376
518.528,0.0440787
518.628,0.0444203
518.728,0.0447625
518.828,0.0451053
518.928,0.0454486
519.028,0.0457925
519.128,0.0461369
519.228,0.0464819
519.328,0.0468274
519.428,0.0471734
519.528,0.04752
519.628,0.0478671
519.728,0.0482147
519.828,0.0485628
519.928,0.0489114
520.028,0.0492605
520.128,0.0496101
520.228,0.0499601
520.328,0.0503107
520.428,0.0506617
520.528,0.0510133
520.628,0.0513652
520.728,0.0517177
520.828,0.0520705
520.928,0.0524239
521.028,0.0527777
521.128,0.0531319
521.228,0.0534865
521.328,0.0538416
521.428,0.0541971
521.528,0.054553
521.628,0.0549093
521.728,0.0552661
521.828,0.0556232
521.928,0.0559807
522.028,0.0563386
522.128,0.0566969
522.228,0.0570556
522.328,0.0574146
522.428,0.057774
522.528,0.0581337
522.628,0.0584939
522.728,0.0588543
522.828,0.0592151
522.928,0.0595763
523.028,0.0599378
523.128,0.0602996
523.228,0.0606617
523.328,0.0610241
523.428,0.0613869
523.528,0.06175
523.628,0.0621133
523.728,0.062477
523.828,0.0628409
523.928,0.0632052
524.028,0.0635697
524.128,0.0639345
524.228,0.0642995
524.328,0.0646649
524.428,0.0650304
524.528,0.0653963
524.628,0.0657624
524.728,0.0661287
524.828,0.0664953
524.928,0.0668621
525.028,0.0672291
525.128,0.0675964
525.228,0.0679638
525.328,0.0683315
525.428,0.0686994
525.528,0.0690675
525.628,0.0694358
525.728,0.0698043
525.828,0.070173
525.928,0.0705419
526.028,0.0709109
526.128,0.0712802
526.228,0.0716496
526.328,0.0720192
526.428,0.0723889
526.528,0.0727588
526.628,0.0731289
526.728,0.0734991
526.828,0.0738694
526.928,0.07424
527.028,0.0746106
527.128,0.0749814
527.228,0.0753523
527.328,0.0757233
527.428,0.0760945
527.528,0.0764658
527.628,0.0768372
527.728,0.0772087
527.828,0.0775803
527.928,0.0779521
528.028,0.0783239
528.128,0.0786959
528.228,0.0790679
528.328,0.0794401
528.428,0.0798123
528.528,0.0801846
528.628,0.080557
528.728,0.0809295
528.828,0.0813021
528.928,0.0816748
529.028,0.0820475
529.128,0.0824203
529.228,0.0827932
529.328,0.0831661
529.428,0.0835391
529.528,0.0839122
529.628,0.0842854
529.728,0.0846586
529.828,0.0850319
529.928,0.0854052
530.028,0.0857786
530.128,0.0861521
530.228,0.0865256
530.328,0.0868992
530.428,0.0872728
530.528,0.0876465
530.628,0.0880202
530.728,0.088394
530.828,0.0887678
530.928,0.0891417
531.028,0.0895157
531.128,0.0898897
531.228,0.0902637
531.328,0.0906378
531.428,0.091012
531.528,0.0913862
531.628,0.0917605
531.728,0.0921348
531.828,0.0925092
531.928,0.0928837
532.028,0.0932582
532.128,0.0936327
532.228,0.0940074
532.328,0.0943821
532.428,0.0947568
532.528,0.0951317
532.628,0.0955066
532.728,0.0958816
532.828,0.0962567
532.928,0.0966318
533.028,0.0970071
533.128,0.0973824
533.228,0.0977578
533.328,0.0981333
533.428,0.0985089
533.528,0.0988846
533.628,0.0992604
533.728,0.0996364
533.828,0.100012
533.928,0.100389
534.028,0.100765
534.128,0.101141
534.228,0.101518
534.328,0.101895
534.428,0.102271
534.528,0.102648
534.628,0.103026
534.728,0.103403
534.828,0.103781
534.928,0.104158
535.028,0.104536
535.128,0.104914
535.228,0.105293
535.328,0.105671
535.428,0.10605
535.528,0.106429
535.628,0.106808
535.728,0.107187
535.828,0.107567
535.928,0.107947
536.028,0.108327
536.128,0.108708
536.228,0.109089
536.328,0.10947
536.428,0.109852
536.528,0.110233
536.628,0.110616
536.728,0.110998
536.828,0.111381
536.928,0.111764
537.028,0.112148
537.128,0.112532
537.228,0.112917
537.328,0.113302
537.428,0.113687
537.528,0.114073
537.628,0.114459
537.728,0.114846
537.828,0.115234
537.928,0.115621
538.028,0.11601
538.128,0.116399
538.228,0.116789
538.328,0.117179
538.428,0.11757
538.528,0.117961
538.628,0.118353
538.728,0.118746
538.828,0.119139
538.928,0.119534
539.028,0.119928
539.128,0.120324
539.228,0.120721
539.328,0.121118
539.428,0.121516
539.528,0.121915
539.628,0.122315
539.728,0.122715
539.828,0.123117
539.928,0.123519
540.028,0.123923
540.128,0.124327
540.228,0.124733
540.328,0.125139
540.428,0.125547
540.528,0.125956
540.628,0.126365
540.728,0.126776
540.828,0.127189
540.928,0.127602
541.028,0.128017
541.128,0.128432
541.228,0.12885
541.328,0.129268
541.428,0.129688
541.528,0.130109
541.628,0.130532
541.728,0.130956
541.828,0.131382
541.928,0.131809
542.028,0.132238
542.128,0.132668
542.228,0.133101
542.328,0.133534
542.428,0.13397
542.528,0.134407
542.628,0.134846
542.728,0.135287
542.828,0.13573
542.928,0.136175
543.028,0.136621
543.128,0.13707
543.228,0.137521
543.328,0.137974
543.428,0.138429
543.528,0.138886
543.628,0.139346
543.728,0.139808
543.828,0.140272
543.928,0.140738
544.028,0.141207
544.128,0.141679
544.228,0.142153
544.328,0.142629
544.428,0.143109
544.528,0.143591
544.628,0.144076
544.728,0.144563
544.828,0.145054
544.928,0.145547
545.028,0.146044
545.128,0.146543
545.228,0.147046
545.328,0.147552
545.428,0.148061
545.528,0.148573
545.628,0.149089
545.728,0.149608
545.828,0.150131
545.928,0.150657
546.028,0.151187
546.128,0.151718
546.228,0.152249
546.328,0.152779
546.428,0.15331
546.528,0.153842
546.628,0.154373
546.728,0.154905
546.828,0.155437
546.928,0.15597
547.028,0.156504
547.128,0.157038
547.228,0.157573
547.328,0.158109
547.428,0.158646
547.528,0.159184
547.628,0.159723
547.728,0.160264
547.828,0.160806
547.928,0.161349
548.028,0.161895
548.128,0.162441
548.228,0.16299
548.328,0.163541
548.428,0.164094
548.528,0.164649
548.628,0.165206
548.728,0.165766
548.828,0.166328
548.928,0.166893
549.028,0.167461
549.128,0.168032
549.228,0.168606
549.328,0.169183
549.428,0.169763
549.528,0.170347
549.628,0.170935
549.728,0.171526
549.828,0.172122
549.928,0.172721
550.028,0.173325
550.128,0.173933
550.228,0.174545
550.328,0.175163
550.428,0.175785
550.528,0.176412
550.628,0.177044
550.728,0.177682
550.828,0.178325
550.928,0.178974
551.028,0.179629
551.128,0.18029
551.228,0.180957
551.328,0.18163
551.428,0.18231
551.528,0.182997
551.628,0.183691
551.728,0.184392
551.828,0.1851
551.928,0.185816
552.028,0.186539
552.128,0.18727
552.228,0.18801
552.328,0.188757
552.428,0.189514
552.528,0.190279
552.628,0.191053
552.728,0.191836
552.828,0.192628
552.928,0.19343
553.028,0.194242
553.128,0.195063
553.228,0.195895
553.328,0.196737
553.428,0.19759
553.528,0.198454
553.628,0.199329
553.728,0.200215
553.828,0.201112
553.928,0.202022
554.028,0.202943
554.128,0.203877
554.228,0.204823
554.328,0.205781
554.428,0.206753
554.528,0.207737
554.628,0.208735
554.728,0.209747
554.828,0.210772
554.928,0.211811
555.028,0.212865
555.128,0.213933
555.228,0.215016
555.328,0.216114
555.428,0.217226
555.528,0.218355
555.628,0.219499
555.728,0.220658
555.828,0.221834
555.928,0.223026
556.028,0.224235
556.128,0.22546
556.228,0.226703
556.328,0.227962
556.428,0.229239
556.528,0.230533
556.628,0.231845
556.728,0.233175
556.828,0.234523
556.928,0.235889
557.028,0.237274
557.128,0.238677
557.228,0.240099
557.328,0.24154
557.428,0.243
557.528,0.24448
557.628,0.245979
557.728,0.247497
557.828,0.249035
557.928,0.250593
558.028,0.25217
558.128,0.253767
558.228,0.255385
558.328,0.257022
558.428,0.25868
558.528,0.260357
558.628,0.262055
558.728,0.263773
558.828,0.265511
558.928,0.267269
559.028,0.269047
559.128,0.270845
559.228,0.272663
559.328,0.274501
559.428,0.276359
559.528,0.278236
559.628,0.280133
559.728,0.282048
559.828,0.283983
559.928,0.285937
560.028,0.287909
560.128,0.289899
560.228,0.291908
560.328,0.293934
560.428,0.295977
560.528,0.298037
560.628,0.300113
560.728,0.302205
560.828,0.304313
560.928,0.306436
561.028,0.308573
561.128,0.310724
561.228,0.312888
561.328,0.315064
561.428,0.317252
561.528,0.319451
561.628,0.321661
561.728,0.32388
561.828,0.326107
561.928,0.328342
562.028,0.330584
562.128,0.332832
562.228,0.335084
562.328,0.33734
562.428,0.339598
562.528,0.341858
562.628,0.344118
562.728,0.346377
562.828,0.348634
562.928,0.350886
563.028,0.353134
563.128,0.355375
563.228,0.357609
563.328,0.359833
563.428,0.362046
563.528,0.364246
563.628,0.366432
563.728,0.368603
563.828,0.370756
563.928,0.37289
564.028,0.375002
564.128,0.377092
564.228,0.379158
564.328,0.381197
564.428,0.383208
564.528,0.385189
564.628,0.387138
564.728,0.389053
564.828,0.390932
564.928,0.392773
565.028,0.394575
565.128,0.396335
565.228,0.398051
565.328,0.399722
565.428,0.401345
565.528,0.402919
565.628,0.404442
565.728,0.405911
565.828,0.407326
565.928,0.408683
566.028,0.409983
566.128,0.411221
566.228,0.412398
566.328,0.413511
566.428,0.414558
566.528,0.415539
566.628,0.416451
566.728,0.417293
566.828,0.418064
566.928,0.418762
567.028,0.419387
567.128,0.419936
567.228,0.420409
567.328,0.420806
567.428,0.421124
567.528,0.421364
567.628,0.421524
567.728,0.421604
567.828,0.421603
567.928,0.421521
568.028,0.421357
568.128,0.421112
568.228,0.420785
568.328,0.420374
568.428,0.419877
568.528,0.419295
568.628,0.418627
568.728,0.417875
568.828,0.417037
568.928,0.416116
569.028,0.415112
569.128,0.414026
569.228,0.412857
569.328,0.411609
569.428,0.410281
569.528,0.408875
569.628,0.407391
569.728,0.405833
569.828,0.4042
569.928,0.402494
570.028,0.400718
570.128,0.398872
570.228,0.396959
570.328,0.394979
570.428,0.392936
570.528,0.39083
570.628,0.388664
570.728,0.38644
570.828,0.384159
570.928,0.381824
571.028,0.379437
571.128,0.377
571.228,0.374514
571.328,0.371983
571.428,0.369408
571.528,0.36679
571.628,0.364134
571.728,0.361439
571.828,0.358709
571.928,0.355946
572.028,0.353151
572.128,0.350327
572.228,0.347475
572.328,0.344599
572.428,0.341699
572.528,0.338777
572.628,0.335836
572.728,0.332878
572.828,0.329904
572.928,0.326915
573.028,0.323915
573.128,0.320904
573.228,0.317884
573.328,0.314857
573.428,0.311825
573.528,0.308788
573.628,0.305749
573.728,0.302709
573.828,0.299669
573.928,0.296631
574.028,0.293595
574.128,0.290564
574.228,0.287539
574.328,0.28452
574.428,0.281509
574.528,0.278506
574.628,0.275514
574.728,0.272532
574.828,0.269563
574.928,0.266606
575.028,0.263662
575.128,0.260733
575.228,0.257819
575.328,0.254921
575.428,0.252039
575.528,0.249175
575.628,0.246329
575.728,0.243501
575.828,0.240692
575.928,0.237902
576.028,0.235133
576.128,0.232383
576.228,0.229655
576.328,0.226948
576.428,0.224262
576.528,0.221599
576.628,0.218957
576.728,0.216338
576.828,0.213742
576.928,0.211168
577.028,0.208618
577.128,0.206091
577.228,0.203587
577.328,0.201107
577.428,0.19865
577.528,0.196218
577.628,0.193809
577.728,0.191424
577.828,0.189062
577.928,0.186725
578.028,0.184412
578.128,0.182122
578.228,0.179857
578.328,0.177615
578.428,0.175397
578.528,0.173203
578.628,0.171033
578.728,0.168886
578.828,0.166763
578.928,0.164663
579.028,0.162586
579.128,0.160533
579.228,0.158502
579.328,0.156495
579.428,0.15451
579.528,0.152548
579.628,0.150608
579.728,0.148691
579.828,0.146796
579.928,0.144923
580.028,0.143071
580.128,0.141241
580.228,0.139433
580.328,0.137646
580.428,0.13588
580.528,0.134135
580.628,0.132411
580.728,0.130707
580.828,0.129023
580.928,0.12736
581.028,0.125716
581.128,0.124092
581.228,0.122488
581.328,0.120903
581.428,0.119337
581.528,0.11779
581.628,0.116262
581.728,0.114752
581.828,0.11326
581.928,0.111787
582.028,0.110331
582.128,0.108893
582.228,0.107473
582.328,0.10607
582.428,0.104684
582.528,0.103315
582.628,0.101962
582.728,0.100626
582.828,0.0993062
582.928,0.0980024
583.028,0.0967146
583.128,0.0954424
583.228,0.0941857
583.328,0.0929443
583.428,0.091718
583.528,0.0905067
583.628,0.0893101
583.728,0.088128
583.828,0.0869603
583.928,0.0858067
584.028,0.0846672
584.128,0.0835415
584.228,0.0824294
584.328,0.0813308
584.428,0.0802454
584.528,0.0791732
584.628,0.078114
584.728,0.0770675
584.828,0.0760336
584.928,0.0750122
585.028,0.0740031
585.128,0.0730061
585.228,0.072021
585.328,0.0710478
585.428,0.0700862
585.528,0.0691361
585.628,0.0681973
585.728,0.0672697
585.828,0.0663532
585.928,0.0654476
586.028,0.0645527
586.128,0.0636684
586.228,0.0627946
586.328,0.0619311
586.428,0.0610778
586.528,0.0602346
586.628,0.0594012
586.728,0.0585777
586.828,0.0577638
586.928,0.0569594
587.028,0.0561644
587.128,0.0553787
587.228,0.0546022
587.328,0.0538346
587.428,0.053076
587.528,0.0523261
587.628,0.0515849
587.728,0.0508523
587.828,0.0501281
587.928,0.0494122
588.028,0.0487045
588.128,0.0480049
588.228,0.0473133
588.328,0.0466295
588.428,0.0459536
588.528,0.0452853
588.628,0.0446246
588.728,0.0439714
588.828,0.0433255
588.928,0.0426869
589.028,0.0420555
589.128,0.0414312
589.228,0.0408138
589.328,0.0402033
589.428,0.0395996
589.528,0.0390027
589.628,0.0384123
589.728,0.0378285
589.828,0.0372511
589.928,0.0366801
590.028,0.0361154
590.128,0.0355568
590.228,0.0350044
590.328,0.034458
590.428,0.0339175
590.528,0.0333829
590.628,0.0328541
590.728,0.0323311
590.828,0.0318136
590.928,0.0313018
591.028,0.0307954
591.128,0.0302944
591.228,0.0297989
591.328,0.0293085
591.428,0.0288234
591.528,0.0283435
591.628,0.0278686
591.728,0.0273988
591.828,0.0269339
591.928,0.0264738
592.028,0.0260186
592.128,0.0255682
592.228,0.0251224
592.328,0.0246813
592.428,0.0242448
592.528,0.0238128
592.628,0.0233852
592.728,0.0229621
592.828,0.0225433
592.928,0.0221288
593.028,0.0217185
593.128,0.0213124
593.228,0.0209105
593.328,0.0205126
593.428,0.0201187
593.528,0.0197288
593.628,0.0193429
593.728,0.0189608
593.828,0.0185826
593.928,0.0182081
594.028,0.0178374
594.128,0.0174703
594.228,0.0171069
594.328,0.0167471
594.428,0.0163908
594.528,0.016038
594.628,0.0156887
594.728,0.0153429
594.828,0.0150004
594.928,0.0146612
595.028,0.0143253
595.128,0.0139927
595.228,0.0136633
595.328,0.013337
595.428,0.0130139
595.528,0.0126939
595.628,0.012377
595.728,0.0120631
595.828,0.0117521
595.928,0.0114442
596.028,0.0111391
596.128,0.0108369
596.228,0.0105375
596.328,0.010241
596.428,0.00994724
596.528,0.00965622
596.628,0.00936792
596.728,0.00908229
596.828,0.00879931
596.928,0.00851894
597.028,0.00824115
597.128,0.00796592
597.228,0.00769322
597.328,0.007423
597.428,0.00715525
597.528,0.00688994
597.628,0.00662704
597.728,0.00636651
597.828,0.00610833
597.928,0.00585248
598.028,0.00559893
598.128,0.00534764
598.228,0.0050986
598.328,0.00485178
598.428,0.00460715
598.528,0.00436469
598.628,0.00412437
598.728,0.00388617
598.828,0.00365006
598.928,0.00341603
599.028,0.00318404
599.128,0.00295407
599.228,0.00272611
599.328,0.00250012
599.428,0.00227609
599.528,0.00205399
599.628,0.00183381
599.728,0.00161552
599.828,0.00139909
599.928,0.00118452
600.028,0.000971773
600.128,0.000760835
600.228,0.000551686
600.328,0.000344305
600.428,0.000138672
600.528,-6.52298e-05
600.628,-0.000267421
600.728,-0.000467921
600.828,-0.000666746
600.928,-0.000863917
601.028,-0.00105945
601.128,-0.00125336
601.228,-0.00144567
601.328,-0.0016364
601.428,-0.00182556
601.528,-0.00201316
601.628,-0.00219924
601.728,-0.00238379
601.828,-0.00256685
601.928,-0.00274841
602.028,-0.00292851
602.128,-0.00310715
602.228,-0.00328436
602.328,-0.00346014
602.428,-0.00363451
602.528,-0.00380748
602.628,-0.00397908
602.728,-0.00414931
602.828,-0.0043182
602.928,-0.00448574
603.028,-0.00465196
603.128,-0.00481688
603.228,-0.00498049
603.328,-0.00514283
603.428,-0.00530389
603.528,-0.0054637
603.628,-0.00562227
603.728,-0.0057796
603.828,-0.00593572
603.928,-0.00609063
604.028,-0.00624435
604.128,-0.00639689
604.228,-0.00654826
604.328,-0.00669847
604.428,-0.00684753
604.528,-0.00699546
604.628,-0.00714227
604.728,-0.00728796
604.828,-0.00743256
604.928,-0.00757606
605.028,-0.00771849
605.128,-0.00785984
605.228,-0.00800014
605.328,-0.00813939
605.428,-0.00827761
605.528,-0.00841479
605.628,-0.00855096
605.728,-0.00868613
605.828,-0.00882029
605.928,-0.00895347
606.028,-0.00908567
606.128,-0.0092169
606.228,-0.00934718
606.328,-0.0094765
606.428,-0.00960488
606.528,-0.00973233
606.628,-0.00985886
606.728,-0.00998447
606.828,-0.0101092
606.928,-0.010233
607.028,-0.0103559
607.128,-0.010478
607.228,-0.0105991
607.328,-0.0107194
607.428,-0.0108389
607.528,-0.0109575
607.628,-0.0110753
607.728,-0.0111922
607.828,-0.0113083
607.928,-0.0114236
608.028,-0.0115381
608.128,-0.0116518
608.228,-0.0117647
608.328,-0.0118768
608.428,-0.0119881
608.528,-0.0120986
608.628,-0.0122084
608.728,-0.0123175
608.828,-0.0124257
608.928,-0.0125333
609.028,-0.0126401
609.128,-0.0127461
609.228,-0.0128515
609.328,-0.0129561
609.428,-0.01306
609.528,-0.0131632
609.628,-0.0132657
609.728,-0.0133676
609.828,-0.0134687
609.928,-0.0135691
610.028,-0.0136689
610.128,-0.013768
610.228,-0.0138665
610.328,-0.0139643
610.428,-0.0140614
610.528,-0.0141579
610.628,-0.0142537
610.728,-0.014349
610.828,-0.0144436
610.928,-0.0145375
611.028,-0.0146309
611.128,-0.0147236
611.228,-0.0148157
611.328,-0.0149073
611.428,-0.0149982
611.528,-0.0150886
611.628,-0.0151783
611.728,-0.0152675
611.828,-0.0153561
611.928,-0.0154441
612.028,-0.0155316
612.128,-0.0156185
612.228,-0.0157048
612.328,-0.0157906
612.428,-0.0158759
612.528,-0.0159606
612.628,-0.0160447