File: wang_2023/xrd/curve_total_fit.dat
32.2501,3.74712e-34
32.2801,3.74712e-34
32.3101,3.74712e-34
32.3401,3.74712e-34
32.3701,3.74712e-34
32.4001,3.74712e-34
32.4301,3.74712e-34
32.4601,3.74712e-34
32.4901,3.74712e-34
32.5201,3.74712e-34
32.5501,3.74712e-34
32.5801,3.74712e-34
32.6101,3.74712e-34
32.6401,3.74712e-34
32.6701,3.74712e-34
32.7001,3.74712e-34
32.7301,3.74712e-34
32.7601,3.74712e-34
32.7901,3.74712e-34
32.8201,3.74712e-34
32.8501,3.74712e-34
32.8801,3.74712e-34
32.9101,3.74712e-34
32.9401,3.74712e-34
32.9701,3.74712e-34
33.0001,3.74712e-34
33.0301,3.74712e-34
33.0601,3.74712e-34
33.0901,3.74712e-34
33.1201,3.74712e-34
33.1501,3.74712e-34
33.1801,3.74712e-34
33.2101,3.74712e-34
33.2401,3.74712e-34
33.2701,3.74712e-34
33.3001,3.74713e-34
33.3301,3.74777e-34
33.3601,3.77363e-34
33.3901,4.74416e-34
33.4201,3.82858e-33
33.4501,1.10586e-31
33.4801,3.23987e-30
33.5101,8.77126e-29
33.5401,2.18763e-27
33.5701,5.02596e-26
33.6001,1.06364e-24
33.6301,2.0735e-23
33.6601,3.72342e-22
33.6901,6.15903e-21
33.7201,9.38456e-20
33.7501,1.31718e-18
33.7801,1.70298e-17
33.8101,2.02818e-16
33.8401,2.22501e-15
33.8701,2.24848e-14
33.9001,2.09304e-13
33.9301,1.79473e-12
33.9601,1.41759e-11
33.9901,1.03141e-10
34.0201,6.91267e-10
34.0501,4.26767e-09
34.0801,2.42698e-08
34.1101,1.27138e-07
34.1401,6.13497e-07
34.1701,2.72698e-06
34.2001,1.11656e-05
34.2301,4.2113e-05
34.2601,0.000146312
34.2901,0.000468246
34.3201,0.00138039
34.3501,0.0037485
34.3801,0.00937662
34.4101,0.0216056
34.4401,0.0458582
34.4701,0.08966
34.5001,0.161478
34.5301,0.26789
34.5601,0.409386
34.5901,0.576288
34.6201,0.747271
34.6501,0.892581
34.6801,0.982084
34.7101,0.995361
34.7401,0.929274
34.7701,0.799169
34.8001,0.633088
34.8301,0.461978
34.8601,0.310534
34.8901,0.192278
34.9201,0.109668
34.9501,0.0576184
34.9801,0.0278852
35.0101,0.0124314
35.0401,0.00510498
35.0701,0.00193108
35.1001,0.000672882
35.1301,0.000215977
35.1601,6.3857e-05
35.1901,1.73916e-05
35.2201,4.36318e-06
35.2501,1.00832e-06
35.2801,2.14646e-07
35.3101,4.20901e-08
35.3401,7.60269e-09
35.3701,1.26499e-09
35.4001,1.93882e-10
35.4301,2.73728e-11
35.4601,3.55985e-12
35.4901,4.26457e-13
35.5201,4.70599e-14
35.5501,4.78362e-15
35.5801,4.47914e-16
35.6101,3.86335e-17
35.6401,3.06947e-18
35.6701,2.24644e-19
35.7001,1.51446e-20
35.7301,9.40485e-22
35.7601,5.37994e-23
35.7901,2.83487e-24
35.8201,1.37601e-25
35.8501,6.15233e-27
35.8801,2.53391e-28
35.9101,9.61364e-30
35.9401,3.36332e-31
35.9701,1.11897e-32
36.0001,6.95414e-34
36.0301,3.83472e-34
36.0601,3.74932e-34
36.0901,3.74717e-34
36.1201,3.74712e-34
36.1501,3.74712e-34
36.1801,3.74712e-34
36.2101,3.74712e-34
36.2401,3.74712e-34
36.2701,3.74712e-34
36.3001,3.74712e-34
36.3301,3.74712e-34
36.3601,3.74712e-34
36.3901,3.74712e-34
36.4201,3.74712e-34
36.4501,3.74712e-34
36.4801,3.74712e-34
36.5101,3.74712e-34
36.5401,3.74712e-34
36.5701,3.74712e-34
36.6001,3.74712e-34
36.6301,3.74712e-34
36.6601,3.74712e-34
36.6901,3.74712e-34
36.7201,3.74712e-34
36.7501,3.74712e-34
36.7801,3.74712e-34
36.8101,3.74712e-34
36.8401,3.74712e-34
36.8701,3.74712e-34
36.9001,3.74712e-34
36.9301,3.74712e-34
36.9601,3.74712e-34
36.9901,3.74712e-34
37.0201,3.74712e-34
37.0501,3.74712e-34
37.0801,3.74712e-34
37.1101,3.74712e-34
37.1401,3.74712e-34
37.1701,3.74712e-34
37.2001,3.74712e-34
37.2301,3.74712e-34
37.2601,3.74712e-34
37.2901,3.74712e-34
37.3201,3.74712e-34
37.3501,3.74712e-34
37.3801,3.74712e-34
37.4101,3.74712e-34
37.4401,3.74712e-34
37.4701,3.74712e-34
37.5001,3.74712e-34
37.5301,3.74712e-34
37.5601,3.74712e-34
37.5901,3.74712e-34
37.6201,3.74712e-34
37.6501,3.74712e-34
37.6801,3.74712e-34
37.7101,3.74712e-34
37.7401,3.74712e-34
37.7701,3.74712e-34
37.8001,3.74712e-34
37.8301,3.74712e-34
37.8601,3.74712e-34
37.8901,3.74712e-34
37.9201,3.74712e-34
37.9501,3.74712e-34
37.9801,3.74712e-34
38.0101,3.74712e-34
38.0401,3.74712e-34
38.0701,3.74712e-34
38.1001,3.74712e-34
38.1301,3.74712e-34
38.1601,3.74712e-34
38.1901,3.74712e-34
38.2201,3.74712e-34
38.2501,3.74712e-34
38.2801,3.74712e-34
38.3101,3.74712e-34
38.3401,3.74712e-34
38.3701,3.74712e-34
38.4001,3.74712e-34
38.4301,3.74712e-34
38.4601,3.74712e-34
38.4901,3.74712e-34
38.5201,3.74712e-34
38.5501,3.74712e-34
38.5801,3.74712e-34
38.6101,3.74712e-34
38.6401,3.74712e-34
38.6701,3.74712e-34
38.7001,3.74712e-34
38.7301,3.74712e-34
38.7601,3.74712e-34
38.7901,3.74712e-34
38.8201,3.74712e-34
38.8501,3.74712e-34
38.8801,3.74712e-34
38.9101,3.74712e-34
38.9401,3.74712e-34
38.9701,3.74712e-34
39.0001,3.74712e-34
39.0301,3.74712e-34
39.0601,3.74712e-34
39.0901,3.74712e-34
39.1201,3.74712e-34
39.1501,3.74712e-34
39.1801,3.74712e-34
39.2101,3.74712e-34
39.2401,3.74712e-34
39.2701,3.74712e-34
39.3001,3.74712e-34
39.3301,3.74712e-34
39.3601,3.74712e-34
39.3901,3.74712e-34
39.4201,3.74712e-34
39.4501,3.74712e-34
39.4801,3.74712e-34
39.5101,3.74712e-34
39.5401,3.74712e-34
39.5701,3.74712e-34
39.6001,3.74712e-34
39.6301,3.74712e-34
39.6601,3.74712e-34
39.6901,3.74712e-34
39.7201,3.74712e-34
39.7501,3.74712e-34
39.7801,3.74712e-34
39.8101,3.74712e-34
39.8401,3.74712e-34
39.8701,3.74712e-34
39.9001,3.74712e-34
39.9301,3.74712e-34
39.9601,3.74712e-34
39.9901,3.74712e-34
40.0201,3.74712e-34
40.0501,3.74712e-34
40.0801,3.74712e-34
40.1101,3.74712e-34
40.1401,3.74712e-34
40.1701,3.74712e-34
40.2001,3.74712e-34
40.2301,3.74712e-34
40.2601,3.74712e-34
40.2901,3.74712e-34
40.3201,3.74712e-34
40.3501,3.74712e-34
40.3801,3.74712e-34
40.4101,3.74712e-34
40.4401,3.74712e-34
40.4701,3.74712e-34
40.5001,3.74712e-34
40.5301,3.74712e-34
40.5601,3.74712e-34
40.5901,3.74712e-34
40.6201,3.74712e-34
40.6501,3.74712e-34
40.6801,3.74712e-34
40.7101,3.74712e-34
40.7401,3.74712e-34
40.7701,3.74712e-34
40.8001,3.74712e-34
40.8301,3.74712e-34
40.8601,3.74712e-34
40.8901,3.74712e-34
40.9201,3.74712e-34
40.9501,3.74712e-34
40.9801,3.74712e-34
41.0101,3.74712e-34
41.0401,3.74712e-34
41.0701,3.74712e-34
41.1001,3.74712e-34
41.1301,3.74712e-34
41.1601,3.74712e-34
41.1901,3.74712e-34
41.2201,3.74712e-34
41.2501,3.74712e-34
41.2801,3.74712e-34
41.3101,3.74712e-34
41.3401,3.74712e-34
41.3701,3.74712e-34
41.4001,3.74712e-34
41.4301,3.74712e-34
41.4601,3.74712e-34
41.4901,3.74712e-34
41.5201,3.74712e-34
41.5501,3.74712e-34
41.5801,3.74712e-34
41.6101,3.74712e-34
41.6401,3.74712e-34
41.6701,3.74712e-34
41.7001,3.74712e-34
41.7301,3.74712e-34
41.7601,3.74712e-34
41.7901,3.74712e-34
41.8201,3.74712e-34
41.8501,3.74712e-34
41.8801,3.74712e-34
41.9101,3.74712e-34
41.9401,3.74712e-34
41.9701,3.74712e-34
42.0001,3.74712e-34
42.0301,3.74712e-34
42.0601,3.74712e-34
42.0901,3.74712e-34
42.1201,3.74712e-34
42.1501,3.74712e-34
42.1801,3.74712e-34
42.2101,3.74712e-34
42.2401,3.74712e-34
42.2701,3.74712e-34
42.3001,3.74712e-34
42.3301,3.74712e-34
42.3601,3.74712e-34
42.3901,3.74712e-34
42.4201,3.74712e-34
42.4501,3.74712e-34
42.4801,3.74712e-34
42.5101,3.74712e-34
42.5401,3.74712e-34
42.5701,3.74712e-34
42.6001,3.74712e-34
42.6301,3.74712e-34
42.6601,3.74712e-34
42.6901,3.74712e-34
42.7201,3.74712e-34
42.7501,3.74712e-34
42.7801,3.74712e-34
42.8101,3.74712e-34
42.8401,3.74712e-34
42.8701,3.74712e-34
42.9001,3.74712e-34
42.9301,3.74712e-34
42.9601,3.74712e-34
42.9901,3.74712e-34
43.0201,3.74712e-34
43.0501,3.74712e-34
43.0801,3.74712e-34
43.1101,3.74712e-34
43.1401,3.74712e-34
43.1701,3.74712e-34
43.2001,3.74712e-34
43.2301,3.74712e-34
43.2601,3.74712e-34
43.2901,3.74712e-34
43.3201,3.74712e-34
43.3501,3.74712e-34
43.3801,3.74712e-34
43.4101,3.74712e-34
43.4401,3.74712e-34
43.4701,3.74712e-34
43.5001,3.74712e-34
43.5301,3.74712e-34
43.5601,3.74712e-34
43.5901,3.74712e-34
43.6201,3.74712e-34
43.6501,3.74712e-34
43.6801,3.74712e-34
43.7101,3.74712e-34
43.7401,3.74712e-34
43.7701,3.74712e-34
43.8001,3.74712e-34
43.8301,3.74712e-34
43.8601,3.74712e-34
43.8901,3.74712e-34
43.9201,3.74712e-34
43.9501,3.74712e-34
43.9801,3.74712e-34
44.0101,3.74712e-34
44.0401,3.74712e-34
44.0701,3.74712e-34
44.1001,3.74712e-34
44.1301,3.74712e-34
44.1601,3.74712e-34
44.1901,3.74712e-34
44.2201,3.74712e-34
44.2501,3.74712e-34
44.2801,3.74712e-34
44.3101,3.74712e-34
44.3401,3.74712e-34
44.3701,3.74712e-34
44.4001,3.74712e-34
44.4301,3.74712e-34
44.4601,3.74712e-34
44.4901,3.74712e-34
44.5201,3.74712e-34
44.5501,3.74712e-34
44.5801,3.74712e-34
44.6101,3.74712e-34
44.6401,3.74712e-34
44.6701,3.74712e-34
44.7001,3.74712e-34
44.7301,3.74712e-34
44.7601,3.74712e-34
44.7901,3.74712e-34
44.8201,3.74712e-34
44.8501,3.74712e-34
44.8801,3.74712e-34
44.9101,3.74712e-34
44.9401,3.74712e-34
44.9701,3.74712e-34
45.0001,3.74712e-34
45.0301,3.74712e-34
45.0601,3.74712e-34
45.0901,3.74712e-34
45.1201,3.74712e-34
45.1501,3.74712e-34
45.1801,3.74712e-34
45.2101,3.74712e-34
45.2401,3.74712e-34
45.2701,3.74712e-34
45.3001,3.74712e-34
45.3301,3.74712e-34
45.3601,3.74712e-34
45.3901,3.74712e-34
45.4201,3.74712e-34
45.4501,3.74712e-34
45.4801,3.74712e-34
45.5101,3.74712e-34
45.5401,3.74712e-34
45.5701,3.74712e-34
45.6001,3.74712e-34
45.6301,3.74712e-34
45.6601,3.74712e-34
45.6901,3.74712e-34
45.7201,3.74712e-34
45.7501,3.74712e-34
45.7801,3.74712e-34
45.8101,3.74712e-34
45.8401,3.74712e-34
45.8701,3.74712e-34
45.9001,3.74712e-34
45.9301,3.74712e-34
45.9601,3.74712e-34
45.9901,3.74712e-34
46.0201,3.74712e-34
46.0501,3.74712e-34
46.0801,3.74712e-34
46.1101,3.74712e-34
46.1401,3.74712e-34
46.1701,3.74712e-34
46.2001,3.74712e-34
46.2301,3.74712e-34
46.2601,3.74712e-34
46.2901,3.74712e-34
46.3201,3.74712e-34
46.3501,3.74712e-34
46.3801,3.74712e-34
46.4101,3.74712e-34
46.4401,3.74712e-34
46.4701,3.74712e-34
46.5001,3.74712e-34
46.5301,3.74712e-34
46.5601,3.74712e-34
46.5901,3.74712e-34
46.6201,3.74712e-34
46.6501,3.74712e-34
46.6801,3.74712e-34
46.7101,3.74712e-34
46.7401,3.74712e-34
46.7701,3.74712e-34
46.8001,3.74712e-34
46.8301,3.74712e-34
46.8601,3.74712e-34
46.8901,3.74712e-34
46.9201,3.74712e-34
46.9501,3.74712e-34
46.9801,3.74712e-34
47.0101,3.74712e-34
47.0401,3.74712e-34
47.0701,3.74712e-34
47.1001,3.74712e-34
47.1301,3.74712e-34
47.1601,3.74712e-34
47.1901,3.74712e-34
47.2201,3.74712e-34
47.2501,3.74712e-34
47.2801,3.74712e-34
47.3101,3.74712e-34
47.3401,3.74712e-34
47.3701,3.74712e-34
47.4001,3.74712e-34
47.4301,3.74712e-34
47.4601,3.74712e-34
47.4901,3.74712e-34
47.5201,3.74712e-34
47.5501,3.74712e-34
47.5801,3.74712e-34
47.6101,3.74712e-34
47.6401,3.74712e-34
47.6701,3.74712e-34
47.7001,3.74712e-34
47.7301,3.74712e-34
47.7601,3.74712e-34
47.7901,3.74712e-34
47.8201,3.74712e-34
47.8501,3.74712e-34
47.8801,3.74712e-34
47.9101,3.74712e-34
47.9401,3.74712e-34
47.9701,3.74712e-34
48.0001,3.74712e-34
48.0301,3.74712e-34
48.0601,3.74712e-34
48.0901,3.74712e-34
48.1201,3.74712e-34
48.1501,3.74712e-34
48.1801,3.74712e-34
48.2101,3.74712e-34
48.2401,3.74712e-34
48.2701,3.74712e-34
48.3001,3.74712e-34
48.3301,3.74712e-34
48.3601,3.74712e-34
48.3901,3.74712e-34
48.4201,3.74712e-34
48.4501,3.74712e-34
48.4801,3.74712e-34
48.5101,3.74712e-34
48.5401,3.74712e-34
48.5701,3.74712e-34
48.6001,3.74712e-34
48.6301,3.74712e-34
48.6601,3.74712e-34
48.6901,3.74712e-34
48.7201,3.74712e-34
48.7501,3.74712e-34
48.7801,3.74712e-34
48.8101,3.74712e-34
48.8401,3.74712e-34
48.8701,3.74712e-34
48.9001,3.74712e-34
48.9301,3.74712e-34
48.9601,3.74712e-34
48.9901,3.74712e-34
49.0201,3.74712e-34
49.0501,3.74712e-34
49.0801,3.74712e-34
49.1101,3.74712e-34
49.1401,3.74712e-34
49.1701,3.74712e-34
49.2001,3.74712e-34
49.2301,3.74712e-34
49.2601,3.74712e-34
49.2901,3.74712e-34
49.3201,3.74712e-34
49.3501,3.74712e-34
49.3801,3.74712e-34
49.4101,3.74712e-34
49.4401,3.74712e-34
49.4701,3.74712e-34
49.5001,3.74712e-34
49.5301,3.74712e-34
49.5601,3.74712e-34
49.5901,3.74712e-34
49.6201,3.74712e-34
49.6501,3.74712e-34
49.6801,3.74712e-34
49.7101,3.74712e-34
49.7401,3.74712e-34
49.7701,3.74712e-34
49.8001,3.74712e-34
49.8301,3.74712e-34
49.8601,3.74712e-34
49.8901,3.74712e-34
49.9201,3.74712e-34
49.9501,3.74712e-34
49.9801,3.74712e-34
50.0101,3.74712e-34
50.0401,3.74712e-34
50.0701,3.74712e-34
50.1001,3.74712e-34
50.1301,3.74712e-34
50.1601,3.74712e-34
50.1901,3.74712e-34
50.2201,3.74712e-34
50.2501,3.74712e-34
50.2801,3.74712e-34
50.3101,3.74712e-34
50.3401,3.74712e-34
50.3701,3.74712e-34
50.4001,3.74712e-34
50.4301,3.74712e-34
50.4601,3.74712e-34
50.4901,3.74712e-34
50.5201,3.74712e-34
50.5501,3.74712e-34
50.5801,3.74712e-34
50.6101,3.74712e-34
50.6401,3.74712e-34
50.6701,3.74712e-34
50.7001,3.74712e-34
50.7301,3.74712e-34
50.7601,3.74712e-34
50.7901,3.74712e-34
50.8201,3.74712e-34
50.8501,3.74712e-34
50.8801,3.74712e-34
50.9101,3.74712e-34
50.9401,3.74712e-34
50.9701,3.74712e-34
51.0001,3.74712e-34
51.0301,3.74712e-34
51.0601,3.74712e-34
51.0901,3.74712e-34
51.1201,3.74712e-34
51.1501,3.74712e-34
51.1801,3.74712e-34
51.2101,3.74712e-34
51.2401,3.74712e-34
51.2701,3.74712e-34
51.3001,3.74712e-34
51.3301,3.74712e-34
51.3601,3.74712e-34
51.3901,3.74712e-34
51.4201,3.74712e-34
51.4501,3.74712e-34
51.4801,3.74712e-34
51.5101,3.74712e-34
51.5401,3.74712e-34
51.5701,3.74712e-34
51.6001,3.74712e-34
51.6301,3.74712e-34
51.6601,3.74712e-34
51.6901,3.74712e-34
51.7201,3.74712e-34
51.7501,3.74712e-34
51.7801,3.74712e-34
51.8101,3.74712e-34
51.8401,3.74712e-34
51.8701,3.74712e-34
51.9001,3.74712e-34
51.9301,3.74712e-34
51.9601,3.74712e-34
51.9901,3.74712e-34
52.0201,3.74712e-34
52.0501,3.74712e-34
52.0801,3.74712e-34
52.1101,3.74712e-34
52.1401,3.74712e-34
52.1701,3.74712e-34
52.2001,3.74712e-34
52.2301,3.74712e-34
52.2601,3.74712e-34
52.2901,3.74712e-34
52.3201,3.74712e-34
52.3501,3.74712e-34
52.3801,3.74712e-34
52.4101,3.74712e-34
52.4401,3.74712e-34
52.4701,3.74712e-34
52.5001,3.74712e-34
52.5301,3.74712e-34
52.5601,3.74712e-34
52.5901,3.74712e-34
52.6201,3.74712e-34
52.6501,3.74712e-34
52.6801,3.74712e-34
52.7101,3.74712e-34
52.7401,3.74712e-34
52.7701,3.74712e-34
52.8001,3.74712e-34
52.8301,3.74712e-34
52.8601,3.74712e-34
52.8901,3.74712e-34
52.9201,3.74712e-34
52.9501,3.74712e-34
52.9801,3.74712e-34
53.0101,3.74712e-34
53.0401,3.74712e-34
53.0701,3.74712e-34
53.1001,3.74712e-34
53.1301,3.74712e-34
53.1601,3.74712e-34
53.1901,3.74712e-34
53.2201,3.74712e-34
53.2501,3.74712e-34
53.2801,3.74712e-34
53.3101,3.74712e-34
53.3401,3.74712e-34
53.3701,3.74712e-34
53.4001,3.74712e-34
53.4301,3.74712e-34
53.4601,3.74712e-34
53.4901,3.74712e-34
53.5201,3.74712e-34
53.5501,3.74712e-34
53.5801,3.74712e-34
53.6101,3.74712e-34
53.6401,3.74712e-34
53.6701,3.74712e-34
53.7001,3.74712e-34
53.7301,3.74712e-34
53.7601,3.74712e-34
53.7901,3.74712e-34
53.8201,3.74712e-34
53.8501,3.74712e-34
53.8801,3.74712e-34
53.9101,3.74712e-34
53.9401,3.74712e-34
53.9701,3.74712e-34
54.0001,3.74712e-34
54.0301,3.74712e-34
54.0601,3.74712e-34
54.0901,3.74712e-34
54.1201,3.74712e-34
54.1501,3.74712e-34
54.1801,3.74712e-34
54.2101,3.74712e-34
54.2401,3.74712e-34
54.2701,3.74712e-34
54.3001,3.74712e-34
54.3301,3.74712e-34
54.3601,3.74712e-34
54.3901,3.74712e-34
54.4201,3.74712e-34
54.4501,3.74712e-34
54.4801,3.74712e-34
54.5101,3.74712e-34
54.5401,3.74712e-34
54.5701,3.74712e-34
54.6001,3.74712e-34
54.6301,3.74712e-34
54.6601,3.74712e-34
54.6901,3.74712e-34
54.7201,3.74712e-34
54.7501,3.74712e-34
54.7801,3.74712e-34
54.8101,3.74712e-34
54.8401,3.74712e-34
54.8701,3.74712e-34
54.9001,3.74712e-34
54.9301,3.74712e-34
54.9601,3.74712e-34
54.9901,3.74712e-34
55.0201,3.74712e-34
55.0501,3.74712e-34
55.0801,3.74712e-34
55.1101,3.74712e-34
55.1401,3.74712e-34
55.1701,3.74712e-34
55.2001,3.74712e-34
55.2301,3.74712e-34
55.2601,3.74712e-34
55.2901,3.74712e-34
55.3201,3.74712e-34
55.3501,3.74712e-34
55.3801,3.74712e-34
55.4101,3.74712e-34
55.4401,3.74712e-34
55.4701,3.74712e-34
55.5001,3.74712e-34
55.5301,3.74712e-34
55.5601,3.74712e-34
55.5901,3.74712e-34
55.6201,3.74712e-34
55.6501,3.74712e-34
55.6801,3.74712e-34
55.7101,3.74712e-34
55.7401,3.74712e-34
55.7701,3.74712e-34
55.8001,3.74712e-34
55.8301,3.74712e-34
55.8601,3.74712e-34
55.8901,3.74712e-34
55.9201,3.74712e-34
55.9501,3.74712e-34
55.9801,3.74712e-34
56.0101,3.74712e-34
56.0401,3.74712e-34
56.0701,3.74712e-34
56.1001,3.74712e-34
56.1301,3.74712e-34
56.1601,3.74712e-34
56.1901,3.74712e-34
56.2201,3.74712e-34
56.2501,3.74712e-34
56.2801,3.74712e-34
56.3101,3.74712e-34
56.3401,3.74712e-34
56.3701,3.74712e-34
56.4001,3.74712e-34
56.4301,3.74712e-34
56.4601,3.74712e-34
56.4901,3.74712e-34
56.5201,3.74712e-34
56.5501,3.74712e-34
56.5801,3.74712e-34
56.6101,3.74712e-34
56.6401,3.74712e-34
56.6701,3.74712e-34
56.7001,3.74712e-34
56.7301,3.74712e-34
56.7601,3.74712e-34
56.7901,3.74712e-34
56.8201,3.74712e-34
56.8501,3.74712e-34
56.8801,3.74712e-34
56.9101,3.74712e-34
56.9401,3.74712e-34
56.9701,3.74712e-34
57.0001,3.74712e-34
57.0301,3.74712e-34
57.0601,3.74712e-34
57.0901,3.74712e-34
57.1201,3.74712e-34
57.1501,3.74712e-34
57.1801,3.74712e-34
57.2101,3.74712e-34
57.2401,3.74712e-34
57.2701,3.74712e-34
57.3001,3.74712e-34
57.3301,3.74712e-34
57.3601,3.74712e-34
57.3901,3.74712e-34
57.4201,3.74712e-34
57.4501,3.74712e-34
57.4801,3.74712e-34
57.5101,3.74712e-34
57.5401,3.74712e-34
57.5701,3.74712e-34
57.6001,3.74712e-34
57.6301,3.74712e-34
57.6601,3.74712e-34
57.6901,3.74712e-34
57.7201,3.74712e-34
57.7501,3.74712e-34
57.7801,3.74712e-34
57.8101,3.74712e-34
57.8401,3.74712e-34
57.8701,3.74712e-34
57.9001,3.74712e-34
57.9301,3.74712e-34
57.9601,3.74712e-34
57.9901,3.74712e-34
58.0201,3.74712e-34
58.0501,3.74712e-34
58.0801,3.74712e-34
58.1101,3.74712e-34
58.1401,3.74712e-34
58.1701,3.74712e-34
58.2001,3.74712e-34
58.2301,3.74712e-34
58.2601,3.74712e-34
58.2901,3.74712e-34
58.3201,3.74712e-34
58.3501,3.74712e-34
58.3801,3.74712e-34
58.4101,3.74712e-34
58.4401,3.74712e-34
58.4701,3.74712e-34
58.5001,3.74712e-34
58.5301,3.74712e-34
58.5601,3.74712e-34
58.5901,3.74712e-34
58.6201,3.74712e-34
58.6501,3.74712e-34
58.6801,3.74712e-34
58.7101,3.74712e-34
58.7401,3.74712e-34
58.7701,3.74712e-34
58.8001,3.74712e-34
58.8301,3.74712e-34
58.8601,3.74712e-34
58.8901,3.74712e-34
58.9201,3.74712e-34
58.9501,3.74712e-34
58.9801,3.74712e-34
59.0101,3.74712e-34
59.0401,3.74712e-34
59.0701,3.74712e-34
59.1001,3.74712e-34
59.1301,3.74712e-34
59.1601,3.74712e-34
59.1901,3.74712e-34
59.2201,3.74712e-34
59.2501,3.74712e-34
59.2801,3.74712e-34
59.3101,3.74712e-34
59.3401,3.74712e-34
59.3701,3.74712e-34
59.4001,3.74712e-34
59.4301,3.74712e-34
59.4601,3.74712e-34
59.4901,3.74712e-34
59.5201,3.74712e-34
59.5501,3.74712e-34
59.5801,3.74712e-34
59.6101,3.74712e-34
59.6401,3.74712e-34
59.6701,3.74712e-34
59.7001,3.74712e-34
59.7301,3.74712e-34
59.7601,3.74712e-34
59.7901,3.74712e-34
59.8201,3.74712e-34
59.8501,3.74712e-34
59.8801,3.74712e-34
59.9101,3.74712e-34
59.9401,3.74712e-34
59.9701,3.74712e-34
60.0001,3.74712e-34
60.0301,3.74712e-34
60.0601,3.74712e-34
60.0901,3.74712e-34
60.1201,3.74712e-34
60.1501,3.74712e-34
60.1801,3.74712e-34
60.2101,3.74712e-34
60.2401,3.74712e-34
60.2701,3.74712e-34
60.3001,3.74712e-34
60.3301,3.74712e-34
60.3601,3.74712e-34
60.3901,3.74712e-34
60.4201,3.74712e-34
60.4501,3.74712e-34
60.4801,3.74712e-34
60.5101,3.74712e-34
60.5401,3.74712e-34
60.5701,3.74712e-34
60.6001,3.74712e-34
60.6301,3.74712e-34
60.6601,3.74712e-34
60.6901,3.74712e-34
60.7201,3.74712e-34
60.7501,3.74712e-34
60.7801,3.74712e-34
60.8101,3.74712e-34
60.8401,3.74712e-34
60.8701,3.74712e-34
60.9001,3.74712e-34
60.9301,3.74712e-34
60.9601,3.74712e-34
60.9901,3.74712e-34
61.0201,3.74712e-34
61.0501,3.74712e-34
61.0801,3.74712e-34
61.1101,3.74712e-34
61.1401,3.74712e-34
61.1701,3.74712e-34
61.2001,3.74712e-34
61.2301,3.74712e-34
61.2601,3.74712e-34
61.2901,3.74712e-34
61.3201,3.74712e-34
61.3501,3.74712e-34
61.3801,3.74712e-34
61.4101,3.74712e-34
61.4401,3.74712e-34
61.4701,3.74712e-34
61.5001,3.74712e-34
61.5301,3.74712e-34
61.5601,3.74712e-34
61.5901,3.74712e-34
61.6201,3.74712e-34
61.6501,3.74712e-34
61.6801,3.74712e-34
61.7101,3.74712e-34
61.7401,3.74712e-34
61.7701,3.74712e-34
61.8001,3.74712e-34
61.8301,3.74712e-34
61.8601,3.74712e-34
61.8901,3.74712e-34
61.9201,3.74712e-34
61.9501,3.74712e-34
61.9801,3.74712e-34
62.0101,3.74712e-34
62.0401,3.74712e-34
62.0701,3.74712e-34
62.1001,3.74712e-34
62.1301,3.74712e-34
62.1601,3.74712e-34
62.1901,3.74712e-34
62.2201,3.74712e-34
62.2501,3.74712e-34
62.2801,3.74712e-34
62.3101,3.74712e-34
62.3401,3.74712e-34
62.3701,3.74712e-34
62.4001,3.74712e-34
62.4301,3.74712e-34
62.4601,3.74712e-34
62.4901,3.74712e-34
62.5201,3.74712e-34
62.5501,3.74712e-34
62.5801,3.74712e-34
62.6101,3.74712e-34
62.6401,3.74712e-34
62.6701,3.74712e-34
62.7001,3.74712e-34
62.7301,3.74712e-34
62.7601,3.74712e-34
62.7901,3.74712e-34
62.8201,3.74712e-34
62.8501,3.74712e-34
62.8801,3.74712e-34
62.9101,3.74712e-34
62.9401,3.74712e-34
62.9701,3.74712e-34
63.0001,3.74712e-34
63.0301,3.74712e-34
63.0601,3.74712e-34
63.0901,3.74712e-34
63.1201,3.74712e-34
63.1501,3.74712e-34
63.1801,3.74712e-34
63.2101,3.74712e-34
63.2401,3.74712e-34
63.2701,3.74712e-34
63.3001,3.74712e-34
63.3301,3.74712e-34
63.3601,3.74712e-34
63.3901,3.74712e-34
63.4201,3.74712e-34
63.4501,3.74712e-34
63.4801,3.74712e-34
63.5101,3.74712e-34
63.5401,3.74712e-34
63.5701,3.74712e-34
63.6001,3.74712e-34
63.6301,3.74712e-34
63.6601,3.74712e-34
63.6901,3.74712e-34
63.7201,3.74712e-34
63.7501,3.74712e-34
63.7801,3.74712e-34
63.8101,3.74712e-34
63.8401,3.74712e-34
63.8701,3.74712e-34
63.9001,3.74712e-34
63.9301,3.74712e-34
63.9601,3.74712e-34
63.9901,3.74712e-34
64.0201,3.74712e-34
64.0501,3.74712e-34
64.0801,3.74712e-34
64.1101,3.74712e-34
64.1401,3.74712e-34
64.1701,3.74712e-34
64.2001,3.74712e-34
64.2301,3.74712e-34
64.2601,3.74712e-34
64.2901,3.74712e-34
64.3201,3.74712e-34
64.3501,3.74712e-34
64.3801,3.74712e-34
64.4101,3.74712e-34
64.4401,3.74712e-34
64.4701,3.74712e-34
64.5001,3.74712e-34
64.5301,3.74712e-34
64.5601,3.74712e-34
64.5901,3.74712e-34
64.6201,3.74712e-34
64.6501,3.74712e-34
64.6801,3.74712e-34
64.7101,3.74712e-34
64.7401,3.74712e-34
64.7701,3.74712e-34
64.8001,3.74712e-34
64.8301,3.74712e-34
64.8601,3.74712e-34
64.8901,3.74712e-34
64.9201,3.74712e-34
64.9501,3.74712e-34
64.9801,3.74712e-34
65.0101,3.74712e-34
65.0401,3.74712e-34
65.0701,3.74712e-34
65.1001,3.74712e-34
65.1301,3.74712e-34
65.1601,3.74712e-34
65.1901,3.74712e-34
65.2201,3.74712e-34
65.2501,3.74712e-34
65.2801,3.74712e-34
65.3101,3.74712e-34
65.3401,3.74712e-34
65.3701,3.74712e-34
65.4001,3.74712e-34
65.4301,3.74712e-34
65.4601,3.74712e-34
65.4901,3.74712e-34
65.5201,3.74712e-34
65.5501,3.74712e-34
65.5801,3.74712e-34
65.6101,3.74712e-34
65.6401,3.74712e-34
65.6701,3.74712e-34
65.7001,3.74712e-34
65.7301,3.74712e-34
65.7601,3.74712e-34
65.7901,3.74712e-34
65.8201,3.74712e-34
65.8501,3.74712e-34
65.8801,3.74712e-34
65.9101,3.74712e-34
65.9401,3.74712e-34
65.9701,3.74712e-34
66.0001,3.74712e-34
66.0301,3.74712e-34
66.0601,3.74712e-34
66.0901,3.74712e-34
66.1201,3.74712e-34
66.1501,3.74712e-34
66.1801,3.74712e-34
66.2101,3.74712e-34
66.2401,3.74712e-34
66.2701,3.74712e-34
66.3001,3.74712e-34
66.3301,3.74712e-34
66.3601,3.74712e-34
66.3901,3.74712e-34
66.4201,3.74712e-34
66.4501,3.74712e-34
66.4801,3.74712e-34
66.5101,3.74712e-34
66.5401,3.74712e-34
66.5701,3.74712e-34
66.6001,3.74712e-34
66.6301,3.74712e-34
66.6601,3.74712e-34
66.6901,3.74712e-34
66.7201,3.74712e-34
66.7501,3.74712e-34
66.7801,3.74712e-34
66.8101,3.74712e-34
66.8401,3.74712e-34
66.8701,3.74712e-34
66.9001,3.74712e-34
66.9301,3.74712e-34
66.9601,3.74712e-34
66.9901,3.74712e-34
67.0201,3.74712e-34
67.0501,3.74712e-34
67.0801,3.74712e-34
67.1101,3.74712e-34
67.1401,3.74712e-34
67.1701,3.74712e-34
67.2001,3.74712e-34
67.2301,3.74712e-34
67.2601,3.74712e-34
67.2901,3.74712e-34
67.3201,3.74712e-34
67.3501,3.74712e-34
67.3801,3.74712e-34
67.4101,3.74712e-34
67.4401,3.74712e-34
67.4701,3.74712e-34
67.5001,3.74712e-34
67.5301,3.74712e-34
67.5601,3.74712e-34
67.5901,3.74712e-34
67.6201,3.74712e-34
67.6501,3.74712e-34
67.6801,3.74712e-34
67.7101,3.74712e-34
67.7401,3.74712e-34
67.7701,3.74712e-34
67.8001,3.74712e-34
67.8301,3.74712e-34
67.8601,3.74712e-34
67.8901,3.74712e-34
67.9201,3.74712e-34
67.9501,3.74712e-34
67.9801,3.74712e-34
68.0101,3.74712e-34
68.0401,3.74712e-34
68.0701,3.74712e-34
68.1001,3.74712e-34
68.1301,3.74712e-34
68.1601,3.74712e-34
68.1901,3.74712e-34
68.2201,3.74712e-34
68.2501,3.74712e-34
68.2801,3.74712e-34
68.3101,3.74712e-34
68.3401,3.74712e-34
68.3701,3.74712e-34
68.4001,3.74712e-34
68.4301,3.74712e-34
68.4601,3.74712e-34
68.4901,3.74712e-34
68.5201,3.74712e-34
68.5501,3.74712e-34
68.5801,3.74712e-34
68.6101,3.74712e-34
68.6401,3.74712e-34
68.6701,3.74712e-34
68.7001,3.74712e-34
68.7301,3.74712e-34
68.7601,3.74712e-34
68.7901,3.74712e-34
68.8201,3.74712e-34
68.8501,3.74712e-34
68.8801,3.74712e-34
68.9101,3.74712e-34
68.9401,3.74712e-34
68.9701,3.74712e-34
69.0001,3.74712e-34
69.0301,3.74712e-34
69.0601,3.74712e-34
69.0901,3.74712e-34
69.1201,3.74712e-34
69.1501,3.74712e-34
69.1801,3.74712e-34
69.2101,3.74712e-34
69.2401,3.74712e-34
69.2701,3.74712e-34
69.3001,3.74712e-34
69.3301,3.74712e-34
69.3601,3.74712e-34
69.3901,3.74712e-34
69.4201,3.74712e-34
69.4501,3.74712e-34
69.4801,3.74712e-34
69.5101,3.74712e-34
69.5401,3.74712e-34
69.5701,3.74712e-34
69.6001,3.74712e-34
69.6301,3.74712e-34
69.6601,3.74712e-34
69.6901,3.74712e-34
69.7201,3.74712e-34
69.7501,3.74712e-34
69.7801,3.74712e-34
69.8101,3.74712e-34
69.8401,3.74712e-34
69.8701,3.74712e-34
69.9001,3.74712e-34
69.9301,3.74712e-34
69.9601,3.74712e-34
69.9901,3.74712e-34
70.0201,3.74712e-34
70.0501,3.74712e-34
70.0801,3.74712e-34
70.1101,3.74712e-34
70.1401,3.74712e-34
70.1701,3.74712e-34
70.2001,3.74712e-34
70.2301,3.74712e-34
70.2601,3.74712e-34
70.2901,3.74712e-34
70.3201,3.74712e-34
70.3501,3.74712e-34
70.3801,3.74712e-34
70.4101,3.74712e-34
70.4401,3.74712e-34
70.4701,3.74712e-34
70.5001,3.74712e-34
70.5301,3.74712e-34
70.5601,3.74712e-34
70.5901,3.74712e-34
70.6201,3.74712e-34
70.6501,3.74712e-34
70.6801,3.74712e-34
70.7101,3.74712e-34
70.7401,3.74712e-34
70.7701,3.74712e-34
70.8001,3.74712e-34
70.8301,3.74712e-34
70.8601,3.74712e-34
70.8901,3.74712e-34
70.9201,3.74712e-34
70.9501,3.74712e-34
70.9801,3.74712e-34
71.0101,3.74712e-34
71.0401,3.74712e-34
71.0701,3.74712e-34
71.1001,3.74712e-34
71.1301,3.74712e-34
71.1601,3.74712e-34
71.1901,3.74712e-34
71.2201,3.74712e-34
71.2501,3.74712e-34
71.2801,3.74712e-34
71.3101,3.74712e-34
71.3401,3.74712e-34
71.3701,3.74712e-34
71.4001,3.74712e-34
71.4301,3.74712e-34
71.4601,3.74712e-34
71.4901,3.74713e-34
71.5201,3.74749e-34
71.5501,3.76152e-34
71.5801,4.26027e-34
71.6101,2.05906e-33
71.6401,5.1328e-32
71.6701,1.42097e-30
71.7001,3.65034e-29
71.7301,8.64457e-28
71.7601,1.88676e-26
71.7901,3.79529e-25
71.8201,7.03612e-24
71.8501,1.2022e-22
71.8801,1.89313e-21
71.9101,2.74752e-20
71.9401,3.67502e-19
71.9701,4.53039e-18
72.0001,5.14717e-17
72.0301,5.38964e-16
72.0601,5.20126e-15
72.0901,4.6261e-14
72.1201,3.79209e-13
72.1501,2.86484e-12
72.1801,1.99471e-11
72.2101,1.28002e-10
72.2401,7.57026e-10
72.2701,4.12632e-09
72.3001,2.07287e-08
72.3301,9.59711e-08
72.3601,4.09511e-07
72.3901,1.61045e-06
72.4201,5.83699e-06
72.4501,1.94979e-05
72.4801,6.00264e-05
72.5101,0.000170316
72.5401,0.000445376
72.5701,0.00107338
72.6001,0.00238419
72.6301,0.00488074
72.6601,0.00920846
72.6901,0.016012
72.7201,0.0256604
72.7501,0.0378999
72.7801,0.0515905
72.8101,0.0647231
72.8401,0.0748353
72.8701,0.0797465
72.9001,0.0783203
72.9301,0.0708916
72.9601,0.0591388
72.9901,0.0454683
73.0201,0.0322182
73.0501,0.0210403
73.0801,0.0126637
73.1101,0.00702469
73.1401,0.00359129
73.1701,0.00169213
73.2001,0.000734804
73.2301,0.000294082
73.2601,0.000108473
73.2901,3.68752e-05
73.3201,1.15533e-05
73.3501,3.33604e-06
73.3801,8.87803e-07
73.4101,2.17751e-07
73.4401,4.9222e-08
73.4701,1.02546e-08
73.5001,1.96894e-09
73.5301,3.48423e-10
73.5601,5.68247e-11
73.5901,8.54133e-12
73.6201,1.18324e-12
73.6501,1.51069e-13
73.6801,1.77761e-14
73.7101,1.92777e-15
73.7401,1.92678e-16
73.7701,1.77487e-17
73.8001,1.50681e-18
73.8301,1.17899e-19
73.8601,8.50189e-21
73.8901,5.65042e-22
73.9201,3.46101e-23
73.9501,1.95381e-24
73.9801,1.01653e-25
74.0101,4.87435e-27
74.0401,2.15412e-28
74.0701,8.77402e-30
74.1001,3.29718e-31
74.1301,1.17687e-32
74.1601,7.38006e-34
74.1901,3.85387e-34
74.2201,3.75001e-34
74.2501,3.74719e-34
74.2801,3.74712e-34
74.3101,3.74712e-34
74.3401,3.74712e-34
74.3701,3.74712e-34
74.4001,3.74712e-34
74.4301,3.74712e-34
74.4601,3.74712e-34
74.4901,3.74712e-34
74.5201,3.74712e-34
74.5501,3.74712e-34
74.5801,3.74712e-34
74.6101,3.74712e-34
74.6401,3.74712e-34
74.6701,3.74712e-34
74.7001,3.74712e-34
74.7301,3.74712e-34
74.7601,3.74712e-34
74.7901,3.74712e-34
74.8201,3.74712e-34
74.8501,3.74712e-34
74.8801,3.74712e-34
74.9101,3.74712e-34
74.9401,3.74712e-34
74.9701,3.74712e-34
75.0001,3.74712e-34
75.0301,3.74712e-34
75.0601,3.74712e-34
75.0901,3.74712e-34
75.1201,3.74712e-34
75.1501,3.74712e-34
75.1801,3.74712e-34
75.2101,3.74712e-34
75.2401,3.74712e-34
75.2701,3.74712e-34
75.3001,3.74712e-34
75.3301,3.74712e-34
75.3601,3.74712e-34
75.3901,3.74712e-34
75.4201,3.74712e-34
75.4401,3.74712e-34