File: wang_2023/xrd/curve_2_fit.dat
32.2501,0.0
32.2801,0.0
32.3101,0.0
32.3401,0.0
32.3701,0.0
32.4001,0.0
32.4301,0.0
32.4601,0.0
32.4901,0.0
32.5201,0.0
32.5501,0.0
32.5801,0.0
32.6101,0.0
32.6401,0.0
32.6701,0.0
32.7001,0.0
32.7301,0.0
32.7601,0.0
32.7901,0.0
32.8201,0.0
32.8501,0.0
32.8801,0.0
32.9101,0.0
32.9401,0.0
32.9701,0.0
33.0001,0.0
33.0301,0.0
33.0601,0.0
33.0901,0.0
33.1201,0.0
33.1501,0.0
33.1801,0.0
33.2101,0.0
33.2401,0.0
33.2701,0.0
33.3001,0.0
33.3301,0.0
33.3601,0.0
33.3901,0.0
33.4201,0.0
33.4501,0.0
33.4801,0.0
33.5101,0.0
33.5401,0.0
33.5701,0.0
33.6001,0.0
33.6301,0.0
33.6601,0.0
33.6901,0.0
33.7201,0.0
33.7501,0.0
33.7801,0.0
33.8101,0.0
33.8401,0.0
33.8701,0.0
33.9001,0.0
33.9301,0.0
33.9601,0.0
33.9901,0.0
34.0201,0.0
34.0501,0.0
34.0801,0.0
34.1101,0.0
34.1401,0.0
34.1701,0.0
34.2001,0.0
34.2301,0.0
34.2601,0.0
34.2901,0.0
34.3201,0.0
34.3501,0.0
34.3801,0.0
34.4101,0.0
34.4401,0.0
34.4701,0.0
34.5001,0.0
34.5301,0.0
34.5601,0.0
34.5901,0.0
34.6201,0.0
34.6501,0.0
34.6801,0.0
34.7101,0.0
34.7401,0.0
34.7701,0.0
34.8001,0.0
34.8301,0.0
34.8601,0.0
34.8901,0.0
34.9201,0.0
34.9501,0.0
34.9801,0.0
35.0101,0.0
35.0401,0.0
35.0701,0.0
35.1001,0.0
35.1301,0.0
35.1601,0.0
35.1901,0.0
35.2201,0.0
35.2501,0.0
35.2801,0.0
35.3101,0.0
35.3401,0.0
35.3701,0.0
35.4001,0.0
35.4301,0.0
35.4601,0.0
35.4901,0.0
35.5201,0.0
35.5501,0.0
35.5801,0.0
35.6101,0.0
35.6401,0.0
35.6701,0.0
35.7001,0.0
35.7301,0.0
35.7601,0.0
35.7901,0.0
35.8201,0.0
35.8501,0.0
35.8801,0.0
35.9101,0.0
35.9401,0.0
35.9701,0.0
36.0001,0.0
36.0301,0.0
36.0601,0.0
36.0901,0.0
36.1201,0.0
36.1501,0.0
36.1801,0.0
36.2101,0.0
36.2401,0.0
36.2701,0.0
36.3001,0.0
36.3301,0.0
36.3601,0.0
36.3901,0.0
36.4201,0.0
36.4501,0.0
36.4801,0.0
36.5101,0.0
36.5401,0.0
36.5701,0.0
36.6001,0.0
36.6301,0.0
36.6601,0.0
36.6901,0.0
36.7201,0.0
36.7501,0.0
36.7801,0.0
36.8101,0.0
36.8401,0.0
36.8701,0.0
36.9001,0.0
36.9301,0.0
36.9601,0.0
36.9901,0.0
37.0201,0.0
37.0501,0.0
37.0801,0.0
37.1101,0.0
37.1401,0.0
37.1701,0.0
37.2001,0.0
37.2301,0.0
37.2601,0.0
37.2901,0.0
37.3201,0.0
37.3501,0.0
37.3801,0.0
37.4101,0.0
37.4401,0.0
37.4701,0.0
37.5001,0.0
37.5301,0.0
37.5601,0.0
37.5901,0.0
37.6201,0.0
37.6501,0.0
37.6801,0.0
37.7101,0.0
37.7401,0.0
37.7701,0.0
37.8001,0.0
37.8301,0.0
37.8601,0.0
37.8901,0.0
37.9201,0.0
37.9501,0.0
37.9801,0.0
38.0101,0.0
38.0401,0.0
38.0701,0.0
38.1001,0.0
38.1301,0.0
38.1601,0.0
38.1901,0.0
38.2201,0.0
38.2501,0.0
38.2801,0.0
38.3101,0.0
38.3401,0.0
38.3701,0.0
38.4001,0.0
38.4301,0.0
38.4601,0.0
38.4901,0.0
38.5201,0.0
38.5501,0.0
38.5801,0.0
38.6101,0.0
38.6401,0.0
38.6701,0.0
38.7001,0.0
38.7301,0.0
38.7601,0.0
38.7901,0.0
38.8201,0.0
38.8501,0.0
38.8801,0.0
38.9101,0.0
38.9401,0.0
38.9701,0.0
39.0001,0.0
39.0301,0.0
39.0601,0.0
39.0901,0.0
39.1201,0.0
39.1501,0.0
39.1801,0.0
39.2101,0.0
39.2401,0.0
39.2701,0.0
39.3001,0.0
39.3301,0.0
39.3601,0.0
39.3901,0.0
39.4201,0.0
39.4501,0.0
39.4801,0.0
39.5101,0.0
39.5401,0.0
39.5701,0.0
39.6001,0.0
39.6301,0.0
39.6601,0.0
39.6901,0.0
39.7201,0.0
39.7501,0.0
39.7801,0.0
39.8101,0.0
39.8401,0.0
39.8701,0.0
39.9001,0.0
39.9301,0.0
39.9601,0.0
39.9901,0.0
40.0201,0.0
40.0501,0.0
40.0801,0.0
40.1101,0.0
40.1401,0.0
40.1701,0.0
40.2001,0.0
40.2301,0.0
40.2601,0.0
40.2901,0.0
40.3201,0.0
40.3501,0.0
40.3801,0.0
40.4101,0.0
40.4401,0.0
40.4701,0.0
40.5001,0.0
40.5301,0.0
40.5601,0.0
40.5901,0.0
40.6201,0.0
40.6501,0.0
40.6801,0.0
40.7101,0.0
40.7401,0.0
40.7701,0.0
40.8001,0.0
40.8301,0.0
40.8601,0.0
40.8901,0.0
40.9201,0.0
40.9501,0.0
40.9801,0.0
41.0101,0.0
41.0401,0.0
41.0701,0.0
41.1001,0.0
41.1301,0.0
41.1601,0.0
41.1901,0.0
41.2201,0.0
41.2501,0.0
41.2801,0.0
41.3101,0.0
41.3401,0.0
41.3701,0.0
41.4001,0.0
41.4301,0.0
41.4601,0.0
41.4901,0.0
41.5201,0.0
41.5501,0.0
41.5801,0.0
41.6101,0.0
41.6401,0.0
41.6701,0.0
41.7001,0.0
41.7301,0.0
41.7601,0.0
41.7901,0.0
41.8201,0.0
41.8501,0.0
41.8801,0.0
41.9101,0.0
41.9401,0.0
41.9701,0.0
42.0001,0.0
42.0301,0.0
42.0601,0.0
42.0901,0.0
42.1201,0.0
42.1501,0.0
42.1801,0.0
42.2101,0.0
42.2401,0.0
42.2701,0.0
42.3001,0.0
42.3301,0.0
42.3601,0.0
42.3901,0.0
42.4201,0.0
42.4501,0.0
42.4801,0.0
42.5101,0.0
42.5401,0.0
42.5701,0.0
42.6001,0.0
42.6301,0.0
42.6601,0.0
42.6901,0.0
42.7201,0.0
42.7501,0.0
42.7801,0.0
42.8101,0.0
42.8401,0.0
42.8701,0.0
42.9001,0.0
42.9301,0.0
42.9601,0.0
42.9901,0.0
43.0201,0.0
43.0501,0.0
43.0801,0.0
43.1101,0.0
43.1401,0.0
43.1701,0.0
43.2001,0.0
43.2301,0.0
43.2601,0.0
43.2901,0.0
43.3201,0.0
43.3501,0.0
43.3801,0.0
43.4101,0.0
43.4401,0.0
43.4701,0.0
43.5001,0.0
43.5301,0.0
43.5601,0.0
43.5901,0.0
43.6201,0.0
43.6501,0.0
43.6801,0.0
43.7101,0.0
43.7401,0.0
43.7701,0.0
43.8001,0.0
43.8301,0.0
43.8601,0.0
43.8901,0.0
43.9201,0.0
43.9501,0.0
43.9801,0.0
44.0101,0.0
44.0401,0.0
44.0701,0.0
44.1001,0.0
44.1301,0.0
44.1601,0.0
44.1901,0.0
44.2201,0.0
44.2501,0.0
44.2801,0.0
44.3101,0.0
44.3401,0.0
44.3701,0.0
44.4001,0.0
44.4301,0.0
44.4601,0.0
44.4901,0.0
44.5201,0.0
44.5501,0.0
44.5801,0.0
44.6101,0.0
44.6401,0.0
44.6701,0.0
44.7001,0.0
44.7301,0.0
44.7601,0.0
44.7901,0.0
44.8201,0.0
44.8501,0.0
44.8801,0.0
44.9101,0.0
44.9401,0.0
44.9701,0.0
45.0001,0.0
45.0301,0.0
45.0601,0.0
45.0901,0.0
45.1201,0.0
45.1501,0.0
45.1801,0.0
45.2101,0.0
45.2401,0.0
45.2701,0.0
45.3001,0.0
45.3301,0.0
45.3601,0.0
45.3901,0.0
45.4201,0.0
45.4501,0.0
45.4801,0.0
45.5101,0.0
45.5401,0.0
45.5701,0.0
45.6001,0.0
45.6301,0.0
45.6601,0.0
45.6901,0.0
45.7201,0.0
45.7501,0.0
45.7801,0.0
45.8101,0.0
45.8401,0.0
45.8701,0.0
45.9001,0.0
45.9301,0.0
45.9601,0.0
45.9901,0.0
46.0201,0.0
46.0501,0.0
46.0801,0.0
46.1101,0.0
46.1401,0.0
46.1701,0.0
46.2001,0.0
46.2301,0.0
46.2601,0.0
46.2901,0.0
46.3201,0.0
46.3501,0.0
46.3801,0.0
46.4101,0.0
46.4401,0.0
46.4701,0.0
46.5001,0.0
46.5301,0.0
46.5601,0.0
46.5901,0.0
46.6201,0.0
46.6501,0.0
46.6801,0.0
46.7101,0.0
46.7401,0.0
46.7701,0.0
46.8001,0.0
46.8301,0.0
46.8601,0.0
46.8901,0.0
46.9201,0.0
46.9501,0.0
46.9801,0.0
47.0101,0.0
47.0401,0.0
47.0701,0.0
47.1001,0.0
47.1301,0.0
47.1601,0.0
47.1901,0.0
47.2201,0.0
47.2501,0.0
47.2801,0.0
47.3101,0.0
47.3401,0.0
47.3701,0.0
47.4001,0.0
47.4301,0.0
47.4601,0.0
47.4901,0.0
47.5201,0.0
47.5501,0.0
47.5801,0.0
47.6101,0.0
47.6401,0.0
47.6701,0.0
47.7001,0.0
47.7301,0.0
47.7601,0.0
47.7901,0.0
47.8201,0.0
47.8501,0.0
47.8801,0.0
47.9101,0.0
47.9401,0.0
47.9701,0.0
48.0001,0.0
48.0301,0.0
48.0601,0.0
48.0901,0.0
48.1201,0.0
48.1501,0.0
48.1801,0.0
48.2101,0.0
48.2401,0.0
48.2701,0.0
48.3001,0.0
48.3301,0.0
48.3601,0.0
48.3901,0.0
48.4201,0.0
48.4501,0.0
48.4801,0.0
48.5101,0.0
48.5401,0.0
48.5701,0.0
48.6001,0.0
48.6301,0.0
48.6601,0.0
48.6901,0.0
48.7201,0.0
48.7501,0.0
48.7801,0.0
48.8101,0.0
48.8401,0.0
48.8701,0.0
48.9001,0.0
48.9301,0.0
48.9601,0.0
48.9901,0.0
49.0201,0.0
49.0501,0.0
49.0801,0.0
49.1101,0.0
49.1401,0.0
49.1701,0.0
49.2001,0.0
49.2301,0.0
49.2601,0.0
49.2901,0.0
49.3201,0.0
49.3501,0.0
49.3801,0.0
49.4101,0.0
49.4401,0.0
49.4701,0.0
49.5001,0.0
49.5301,0.0
49.5601,0.0
49.5901,0.0
49.6201,0.0
49.6501,0.0
49.6801,0.0
49.7101,0.0
49.7401,0.0
49.7701,0.0
49.8001,0.0
49.8301,0.0
49.8601,0.0
49.8901,0.0
49.9201,0.0
49.9501,0.0
49.9801,0.0
50.0101,0.0
50.0401,0.0
50.0701,0.0
50.1001,0.0
50.1301,0.0
50.1601,0.0
50.1901,0.0
50.2201,0.0
50.2501,0.0
50.2801,0.0
50.3101,0.0
50.3401,0.0
50.3701,0.0
50.4001,0.0
50.4301,0.0
50.4601,0.0
50.4901,0.0
50.5201,0.0
50.5501,0.0
50.5801,0.0
50.6101,0.0
50.6401,0.0
50.6701,0.0
50.7001,0.0
50.7301,0.0
50.7601,0.0
50.7901,0.0
50.8201,0.0
50.8501,0.0
50.8801,0.0
50.9101,0.0
50.9401,0.0
50.9701,0.0
51.0001,0.0
51.0301,0.0
51.0601,0.0
51.0901,0.0
51.1201,0.0
51.1501,0.0
51.1801,0.0
51.2101,0.0
51.2401,0.0
51.2701,0.0
51.3001,0.0
51.3301,0.0
51.3601,0.0
51.3901,0.0
51.4201,0.0
51.4501,0.0
51.4801,0.0
51.5101,0.0
51.5401,0.0
51.5701,0.0
51.6001,0.0
51.6301,0.0
51.6601,0.0
51.6901,0.0
51.7201,0.0
51.7501,0.0
51.7801,0.0
51.8101,0.0
51.8401,0.0
51.8701,0.0
51.9001,0.0
51.9301,0.0
51.9601,0.0
51.9901,0.0
52.0201,0.0
52.0501,0.0
52.0801,0.0
52.1101,0.0
52.1401,0.0
52.1701,0.0
52.2001,0.0
52.2301,0.0
52.2601,0.0
52.2901,0.0
52.3201,0.0
52.3501,0.0
52.3801,0.0
52.4101,0.0
52.4401,0.0
52.4701,0.0
52.5001,0.0
52.5301,0.0
52.5601,0.0
52.5901,0.0
52.6201,0.0
52.6501,0.0
52.6801,0.0
52.7101,0.0
52.7401,0.0
52.7701,0.0
52.8001,0.0
52.8301,0.0
52.8601,0.0
52.8901,0.0
52.9201,0.0
52.9501,0.0
52.9801,0.0
53.0101,0.0
53.0401,0.0
53.0701,0.0
53.1001,0.0
53.1301,0.0
53.1601,0.0
53.1901,0.0
53.2201,0.0
53.2501,0.0
53.2801,0.0
53.3101,0.0
53.3401,0.0
53.3701,0.0
53.4001,0.0
53.4301,0.0
53.4601,0.0
53.4901,0.0
53.5201,0.0
53.5501,0.0
53.5801,0.0
53.6101,0.0
53.6401,0.0
53.6701,0.0
53.7001,0.0
53.7301,0.0
53.7601,0.0
53.7901,0.0
53.8201,0.0
53.8501,0.0
53.8801,0.0
53.9101,0.0
53.9401,0.0
53.9701,0.0
54.0001,0.0
54.0301,0.0
54.0601,0.0
54.0901,0.0
54.1201,0.0
54.1501,0.0
54.1801,0.0
54.2101,0.0
54.2401,0.0
54.2701,0.0
54.3001,0.0
54.3301,0.0
54.3601,0.0
54.3901,0.0
54.4201,0.0
54.4501,0.0
54.4801,0.0
54.5101,0.0
54.5401,0.0
54.5701,0.0
54.6001,0.0
54.6301,0.0
54.6601,0.0
54.6901,0.0
54.7201,0.0
54.7501,0.0
54.7801,0.0
54.8101,0.0
54.8401,0.0
54.8701,0.0
54.9001,0.0
54.9301,0.0
54.9601,0.0
54.9901,0.0
55.0201,0.0
55.0501,0.0
55.0801,0.0
55.1101,0.0
55.1401,0.0
55.1701,0.0
55.2001,0.0
55.2301,0.0
55.2601,0.0
55.2901,0.0
55.3201,0.0
55.3501,0.0
55.3801,0.0
55.4101,0.0
55.4401,0.0
55.4701,0.0
55.5001,0.0
55.5301,0.0
55.5601,0.0
55.5901,0.0
55.6201,0.0
55.6501,0.0
55.6801,0.0
55.7101,0.0
55.7401,0.0
55.7701,0.0
55.8001,0.0
55.8301,0.0
55.8601,0.0
55.8901,0.0
55.9201,0.0
55.9501,0.0
55.9801,0.0
56.0101,0.0
56.0401,0.0
56.0701,0.0
56.1001,0.0
56.1301,0.0
56.1601,0.0
56.1901,0.0
56.2201,0.0
56.2501,0.0
56.2801,0.0
56.3101,0.0
56.3401,0.0
56.3701,0.0
56.4001,0.0
56.4301,0.0
56.4601,0.0
56.4901,0.0
56.5201,0.0
56.5501,0.0
56.5801,0.0
56.6101,0.0
56.6401,0.0
56.6701,0.0
56.7001,0.0
56.7301,0.0
56.7601,0.0
56.7901,0.0
56.8201,0.0
56.8501,0.0
56.8801,0.0
56.9101,0.0
56.9401,0.0
56.9701,0.0
57.0001,0.0
57.0301,0.0
57.0601,0.0
57.0901,0.0
57.1201,0.0
57.1501,0.0
57.1801,0.0
57.2101,0.0
57.2401,0.0
57.2701,0.0
57.3001,0.0
57.3301,0.0
57.3601,0.0
57.3901,0.0
57.4201,0.0
57.4501,0.0
57.4801,0.0
57.5101,0.0
57.5401,0.0
57.5701,0.0
57.6001,0.0
57.6301,0.0
57.6601,0.0
57.6901,0.0
57.7201,0.0
57.7501,0.0
57.7801,0.0
57.8101,0.0
57.8401,0.0
57.8701,0.0
57.9001,0.0
57.9301,0.0
57.9601,0.0
57.9901,0.0
58.0201,0.0
58.0501,0.0
58.0801,0.0
58.1101,0.0
58.1401,0.0
58.1701,0.0
58.2001,0.0
58.2301,0.0
58.2601,0.0
58.2901,0.0
58.3201,0.0
58.3501,0.0
58.3801,0.0
58.4101,0.0
58.4401,0.0
58.4701,0.0
58.5001,0.0
58.5301,0.0
58.5601,0.0
58.5901,0.0
58.6201,0.0
58.6501,0.0
58.6801,0.0
58.7101,0.0
58.7401,0.0
58.7701,0.0
58.8001,0.0
58.8301,0.0
58.8601,0.0
58.8901,0.0
58.9201,0.0
58.9501,0.0
58.9801,0.0
59.0101,0.0
59.0401,0.0
59.0701,0.0
59.1001,0.0
59.1301,0.0
59.1601,0.0
59.1901,0.0
59.2201,0.0
59.2501,0.0
59.2801,0.0
59.3101,0.0
59.3401,0.0
59.3701,0.0
59.4001,0.0
59.4301,0.0
59.4601,0.0
59.4901,0.0
59.5201,0.0
59.5501,0.0
59.5801,0.0
59.6101,0.0
59.6401,0.0
59.6701,0.0
59.7001,0.0
59.7301,0.0
59.7601,0.0
59.7901,0.0
59.8201,0.0
59.8501,0.0
59.8801,0.0
59.9101,0.0
59.9401,0.0
59.9701,0.0
60.0001,0.0
60.0301,0.0
60.0601,0.0
60.0901,0.0
60.1201,0.0
60.1501,0.0
60.1801,0.0
60.2101,0.0
60.2401,0.0
60.2701,0.0
60.3001,0.0
60.3301,0.0
60.3601,0.0
60.3901,0.0
60.4201,0.0
60.4501,0.0
60.4801,0.0
60.5101,0.0
60.5401,0.0
60.5701,0.0
60.6001,0.0
60.6301,0.0
60.6601,0.0
60.6901,0.0
60.7201,0.0
60.7501,0.0
60.7801,0.0
60.8101,0.0
60.8401,0.0
60.8701,0.0
60.9001,0.0
60.9301,0.0
60.9601,0.0
60.9901,0.0
61.0201,0.0
61.0501,0.0
61.0801,0.0
61.1101,0.0
61.1401,0.0
61.1701,0.0
61.2001,0.0
61.2301,0.0
61.2601,0.0
61.2901,0.0
61.3201,0.0
61.3501,0.0
61.3801,0.0
61.4101,0.0
61.4401,0.0
61.4701,0.0
61.5001,0.0
61.5301,0.0
61.5601,0.0
61.5901,0.0
61.6201,0.0
61.6501,0.0
61.6801,0.0
61.7101,0.0
61.7401,0.0
61.7701,0.0
61.8001,0.0
61.8301,0.0
61.8601,0.0
61.8901,0.0
61.9201,0.0
61.9501,0.0
61.9801,0.0
62.0101,0.0
62.0401,0.0
62.0701,0.0
62.1001,0.0
62.1301,0.0
62.1601,0.0
62.1901,0.0
62.2201,0.0
62.2501,0.0
62.2801,0.0
62.3101,0.0
62.3401,0.0
62.3701,0.0
62.4001,0.0
62.4301,0.0
62.4601,0.0
62.4901,0.0
62.5201,0.0
62.5501,0.0
62.5801,0.0
62.6101,0.0
62.6401,0.0
62.6701,0.0
62.7001,0.0
62.7301,0.0
62.7601,0.0
62.7901,0.0
62.8201,0.0
62.8501,0.0
62.8801,0.0
62.9101,0.0
62.9401,0.0
62.9701,0.0
63.0001,0.0
63.0301,0.0
63.0601,0.0
63.0901,0.0
63.1201,0.0
63.1501,0.0
63.1801,0.0
63.2101,0.0
63.2401,0.0
63.2701,0.0
63.3001,0.0
63.3301,0.0
63.3601,0.0
63.3901,0.0
63.4201,0.0
63.4501,0.0
63.4801,0.0
63.5101,0.0
63.5401,0.0
63.5701,0.0
63.6001,0.0
63.6301,0.0
63.6601,0.0
63.6901,0.0
63.7201,0.0
63.7501,0.0
63.7801,0.0
63.8101,0.0
63.8401,0.0
63.8701,0.0
63.9001,0.0
63.9301,0.0
63.9601,0.0
63.9901,0.0
64.0201,0.0
64.0501,0.0
64.0801,0.0
64.1101,0.0
64.1401,0.0
64.1701,0.0
64.2001,0.0
64.2301,0.0
64.2601,0.0
64.2901,0.0
64.3201,0.0
64.3501,0.0
64.3801,0.0
64.4101,0.0
64.4401,0.0
64.4701,0.0
64.5001,0.0
64.5301,0.0
64.5601,0.0
64.5901,0.0
64.6201,0.0
64.6501,0.0
64.6801,0.0
64.7101,0.0
64.7401,0.0
64.7701,0.0
64.8001,0.0
64.8301,0.0
64.8601,0.0
64.8901,0.0
64.9201,0.0
64.9501,0.0
64.9801,0.0
65.0101,0.0
65.0401,0.0
65.0701,0.0
65.1001,0.0
65.1301,0.0
65.1601,0.0
65.1901,0.0
65.2201,0.0
65.2501,0.0
65.2801,0.0
65.3101,0.0
65.3401,0.0
65.3701,0.0
65.4001,0.0
65.4301,0.0
65.4601,0.0
65.4901,0.0
65.5201,0.0
65.5501,0.0
65.5801,0.0
65.6101,0.0
65.6401,0.0
65.6701,0.0
65.7001,0.0
65.7301,0.0
65.7601,0.0
65.7901,0.0
65.8201,0.0
65.8501,0.0
65.8801,0.0
65.9101,0.0
65.9401,0.0
65.9701,0.0
66.0001,0.0
66.0301,0.0
66.0601,0.0
66.0901,0.0
66.1201,0.0
66.1501,0.0
66.1801,0.0
66.2101,0.0
66.2401,0.0
66.2701,0.0
66.3001,0.0
66.3301,0.0
66.3601,0.0
66.3901,0.0
66.4201,0.0
66.4501,0.0
66.4801,0.0
66.5101,0.0
66.5401,0.0
66.5701,0.0
66.6001,0.0
66.6301,0.0
66.6601,0.0
66.6901,0.0
66.7201,0.0
66.7501,0.0
66.7801,0.0
66.8101,0.0
66.8401,0.0
66.8701,0.0
66.9001,0.0
66.9301,0.0
66.9601,0.0
66.9901,0.0
67.0201,0.0
67.0501,0.0
67.0801,0.0
67.1101,0.0
67.1401,0.0
67.1701,0.0
67.2001,0.0
67.2301,0.0
67.2601,0.0
67.2901,0.0
67.3201,0.0
67.3501,0.0
67.3801,0.0
67.4101,0.0
67.4401,0.0
67.4701,0.0
67.5001,0.0
67.5301,0.0
67.5601,0.0
67.5901,0.0
67.6201,0.0
67.6501,0.0
67.6801,0.0
67.7101,0.0
67.7401,0.0
67.7701,0.0
67.8001,0.0
67.8301,0.0
67.8601,0.0
67.8901,0.0
67.9201,0.0
67.9501,0.0
67.9801,0.0
68.0101,0.0
68.0401,0.0
68.0701,0.0
68.1001,0.0
68.1301,0.0
68.1601,0.0
68.1901,0.0
68.2201,0.0
68.2501,0.0
68.2801,0.0
68.3101,0.0
68.3401,0.0
68.3701,0.0
68.4001,0.0
68.4301,0.0
68.4601,0.0
68.4901,0.0
68.5201,0.0
68.5501,0.0
68.5801,0.0
68.6101,0.0
68.6401,0.0
68.6701,0.0
68.7001,0.0
68.7301,0.0
68.7601,0.0
68.7901,0.0
68.8201,0.0
68.8501,2.376e-321
68.8801,1.30988e-316
68.9101,6.6562e-312
68.9401,3.11731e-307
68.9701,1.34552e-302
69.0001,5.35255e-298
69.0301,1.9624e-293
69.0601,6.63089e-289
69.0901,2.06497e-284
69.1201,5.92671e-280
69.1501,1.56773e-275
69.1801,3.82196e-271
69.2101,8.58734e-267
69.2401,1.77823e-262
69.2701,3.39373e-258
69.3001,5.96928e-254
69.3301,9.67666e-250
69.3601,1.44573e-245
69.3901,1.9907e-241
69.4201,2.52628e-237
69.4501,2.95471e-233
69.4801,3.18498e-229
69.5101,3.16414e-225
69.5401,2.89709e-221
69.5701,2.4447e-217
69.6001,1.90129e-213
69.6301,1.36279e-209
69.6601,9.00254e-206
69.6901,5.481e-202
69.7201,3.07548e-198
69.7501,1.59046e-194
69.7801,7.58037e-191
69.8101,3.32978e-187
69.8401,1.34803e-183
69.8701,5.02967e-180
69.9001,1.72957e-176
69.9301,5.48143e-173
69.9601,1.60106e-169
69.9901,4.31002e-166
70.0201,1.06932e-162
70.0501,2.44509e-159
70.0801,5.15275e-156
70.1101,1.00079e-152
70.1401,1.79143e-149
70.1701,2.95541e-146
70.2001,4.49358e-143
70.2301,6.29688e-140
70.2601,8.13233e-137
70.2901,9.67972e-134
70.3201,1.06186e-130
70.3501,1.07357e-127
70.3801,1.00035e-124
70.4101,8.59074e-122
70.4401,6.79933e-119
70.4701,4.95975e-116
70.5001,3.33435e-113
70.5301,2.06595e-110
70.5601,1.17974e-107
70.5901,6.20885e-105
70.6201,3.01157e-102
70.6501,1.34627e-99
70.6801,5.54663e-97
70.7101,2.10612e-94
70.7401,7.37049e-92
70.7701,2.3772e-89
70.8001,7.06634e-87
70.8301,1.93588e-84
70.8601,4.8879e-82
70.8901,1.13743e-79
70.9201,2.43939e-77
70.9501,4.82167e-75
70.9801,8.78357e-73
71.0101,1.47469e-70
71.0401,2.28187e-68
71.0701,3.25415e-66
71.1001,4.27702e-64
71.1301,5.18088e-62
71.1601,5.78392e-60
71.1901,5.95113e-58
71.2201,5.64332e-56
71.2501,4.93204e-54
71.2801,3.97262e-52
71.3101,2.94906e-50
71.3401,2.01767e-48
71.3701,1.27225e-46
71.4001,7.39355e-45
71.4301,3.95996e-43
71.4601,1.95473e-41
71.4901,8.89284e-40
71.5201,3.72865e-38
71.5501,1.44086e-36
71.5801,5.13153e-35
71.6101,1.68434e-33
71.6401,5.09533e-32
71.6701,1.4206e-30
71.7001,3.6503e-29
71.7301,8.64457e-28
71.7601,1.88676e-26
71.7901,3.79529e-25
71.8201,7.03612e-24
71.8501,1.2022e-22
71.8801,1.89313e-21
71.9101,2.74752e-20
71.9401,3.67502e-19
71.9701,4.53039e-18
72.0001,5.14717e-17
72.0301,5.38964e-16
72.0601,5.20126e-15
72.0901,4.6261e-14
72.1201,3.79209e-13
72.1501,2.86484e-12
72.1801,1.99471e-11
72.2101,1.28002e-10
72.2401,7.57026e-10
72.2701,4.12632e-09
72.3001,2.07287e-08
72.3301,9.59711e-08
72.3601,4.09511e-07
72.3901,1.61045e-06
72.4201,5.83699e-06
72.4501,1.94979e-05
72.4801,6.00264e-05
72.5101,0.000170316
72.5401,0.000445376
72.5701,0.00107338
72.6001,0.00238419
72.6301,0.00488074
72.6601,0.00920846
72.6901,0.016012
72.7201,0.0256604
72.7501,0.0378999
72.7801,0.0515905
72.8101,0.0647231
72.8401,0.0748353
72.8701,0.0797465
72.9001,0.0783203
72.9301,0.0708916
72.9601,0.0591388
72.9901,0.0454683
73.0201,0.0322182
73.0501,0.0210403
73.0801,0.0126637
73.1101,0.00702469
73.1401,0.00359129
73.1701,0.00169213
73.2001,0.000734804
73.2301,0.000294082
73.2601,0.000108473
73.2901,3.68752e-05
73.3201,1.15533e-05
73.3501,3.33604e-06
73.3801,8.87803e-07
73.4101,2.17751e-07
73.4401,4.9222e-08
73.4701,1.02546e-08
73.5001,1.96894e-09
73.5301,3.48423e-10
73.5601,5.68247e-11
73.5901,8.54133e-12
73.6201,1.18324e-12
73.6501,1.51069e-13
73.6801,1.77761e-14
73.7101,1.92777e-15
73.7401,1.92678e-16
73.7701,1.77487e-17
73.8001,1.50681e-18
73.8301,1.17899e-19
73.8601,8.50189e-21
73.8901,5.65042e-22
73.9201,3.46101e-23
73.9501,1.95381e-24
73.9801,1.01653e-25
74.0101,4.87435e-27
74.0401,2.15412e-28
74.0701,8.77365e-30
74.1001,3.29343e-31
74.1301,1.1394e-32
74.1601,3.63294e-34
74.1901,1.06758e-35
74.2201,2.89134e-37
74.2501,7.21698e-39
74.2801,1.66023e-40
74.3101,3.51999e-42
74.3401,6.87814e-44
74.3701,1.23868e-45
74.4001,2.0559e-47
74.4301,3.14489e-49
74.4601,4.43369e-51
74.4901,5.76081e-53
74.5201,6.89856e-55
74.5501,7.61363e-57
74.5801,7.7443e-59
74.6101,7.2599e-61
74.6401,6.27244e-63
74.6701,4.99459e-65
74.7001,3.6654e-67
74.7301,2.47914e-69
74.7601,1.54539e-71
74.7901,8.87832e-74
74.8201,4.70092e-76
74.8501,2.29399e-78
74.8801,1.03171e-80
74.9101,4.27646e-83
74.9401,1.63368e-85
74.9701,5.75184e-88
75.0001,1.8664e-90
75.0301,5.58161e-93
75.0601,1.53841e-95
75.0901,3.9079e-98
75.1201,9.14895e-101
75.1501,1.97405e-103
75.1801,3.92555e-106
75.2101,7.19452e-109
75.2401,1.21524e-111
75.2701,1.89181e-114
75.3001,2.71426e-117
75.3301,3.58908e-120
75.3601,4.37394e-123
75.3901,4.91269e-126
75.4201,5.08539e-129
75.4401,4.97321e-131