File: wang_2023/xrd/curve_1_fit.dat
32.2501,1.15817e-119
32.2801,9.09444e-117
32.3101,6.57823e-114
32.3401,4.38303e-111
32.3701,2.69011e-108
32.4001,1.52089e-105
32.4301,7.92056e-103
32.4601,3.79967e-100
32.4901,1.67906e-97
32.5201,6.83468e-95
32.5501,2.56272e-92
32.5801,8.85149e-90
32.6101,2.81619e-87
32.6401,8.25352e-85
32.6701,2.22817e-82
32.7001,5.54099e-80
32.7301,1.26928e-77
32.7601,2.6783e-75
32.7901,5.20587e-73
32.8201,9.3209e-71
32.8501,1.53728e-68
32.8801,2.3355e-66
32.9101,3.26842e-64
32.9401,4.21335e-62
32.9701,5.00321e-60
33.0001,5.47268e-58
33.0301,5.51421e-56
33.0601,5.11797e-54
33.0901,4.37566e-52
33.1201,3.44604e-50
33.1501,2.49993e-48
33.1801,1.67058e-46
33.2101,1.02834e-44
33.2401,5.83095e-43
33.2701,3.0456e-41
33.3001,1.46533e-39
33.3301,6.49429e-38
33.3601,2.6513e-36
33.3901,9.97049e-35
33.4201,3.45387e-33
33.4501,1.10211e-31
33.4801,3.23949e-30
33.5101,8.77122e-29
33.5401,2.18763e-27
33.5701,5.02596e-26
33.6001,1.06364e-24
33.6301,2.0735e-23
33.6601,3.72342e-22
33.6901,6.15903e-21
33.7201,9.38456e-20
33.7501,1.31718e-18
33.7801,1.70298e-17
33.8101,2.02818e-16
33.8401,2.22501e-15
33.8701,2.24848e-14
33.9001,2.09304e-13
33.9301,1.79473e-12
33.9601,1.41759e-11
33.9901,1.03141e-10
34.0201,6.91267e-10
34.0501,4.26767e-09
34.0801,2.42698e-08
34.1101,1.27138e-07
34.1401,6.13497e-07
34.1701,2.72698e-06
34.2001,1.11656e-05
34.2301,4.2113e-05
34.2601,0.000146312
34.2901,0.000468246
34.3201,0.00138039
34.3501,0.0037485
34.3801,0.00937662
34.4101,0.0216056
34.4401,0.0458582
34.4701,0.08966
34.5001,0.161478
34.5301,0.26789
34.5601,0.409386
34.5901,0.576288
34.6201,0.747271
34.6501,0.892581
34.6801,0.982084
34.7101,0.995361
34.7401,0.929274
34.7701,0.799169
34.8001,0.633088
34.8301,0.461978
34.8601,0.310534
34.8901,0.192278
34.9201,0.109668
34.9501,0.0576184
34.9801,0.0278852
35.0101,0.0124314
35.0401,0.00510498
35.0701,0.00193108
35.1001,0.000672882
35.1301,0.000215977
35.1601,6.3857e-05
35.1901,1.73916e-05
35.2201,4.36318e-06
35.2501,1.00832e-06
35.2801,2.14646e-07
35.3101,4.20901e-08
35.3401,7.60269e-09
35.3701,1.26499e-09
35.4001,1.93882e-10
35.4301,2.73728e-11
35.4601,3.55985e-12
35.4901,4.26457e-13
35.5201,4.70599e-14
35.5501,4.78362e-15
35.5801,4.47914e-16
35.6101,3.86335e-17
35.6401,3.06947e-18
35.6701,2.24644e-19
35.7001,1.51446e-20
35.7301,9.40485e-22
35.7601,5.37994e-23
35.7901,2.83487e-24
35.8201,1.37601e-25
35.8501,6.15233e-27
35.8801,2.5339e-28
35.9101,9.61327e-30
35.9401,3.35957e-31
35.9701,1.0815e-32
36.0001,3.20702e-34
36.0301,8.76009e-36
36.0601,2.20417e-37
36.0901,5.10875e-39
36.1201,1.09072e-40
36.1501,2.14509e-42
36.1801,3.88605e-44
36.2101,6.48487e-46
36.2401,9.96842e-48
36.2701,1.4115e-49
36.3001,1.84107e-51
36.3301,2.21202e-53
36.3601,2.44815e-55
36.3901,2.49585e-57
36.4201,2.34386e-59
36.4501,2.02756e-61
36.4801,1.61566e-63
36.5101,1.18592e-65
36.5401,8.01848e-68
36.5701,4.99414e-70
36.6001,2.86523e-72
36.6301,1.51423e-74
36.6601,7.37145e-77
36.6901,3.30557e-79
36.7201,1.36543e-81
36.7501,5.19549e-84
36.7801,1.82101e-86
36.8101,5.87938e-89
36.8401,1.74856e-91
36.8701,4.79029e-94
36.9001,1.20885e-96
36.9301,2.81007e-99
36.9601,6.01715e-102
36.9901,1.18685e-104
37.0201,2.15642e-107
37.0501,3.60912e-110
37.0801,5.56418e-113
37.1101,7.9019e-116
37.1401,1.0337e-118
37.1701,1.24562e-121
37.2001,1.38264e-124
37.2301,1.41373e-127
37.2601,1.33153e-130
37.2901,1.15524e-133
37.3201,9.2325e-137
37.3501,6.79673e-140
37.3801,4.60905e-143
37.4101,2.87908e-146
37.4401,1.65664e-149
37.4701,8.78079e-153
37.5001,4.28716e-156
37.5301,1.92814e-159
37.5601,7.98798e-163
37.5901,3.04837e-166
37.6201,1.07159e-169
37.6501,3.46993e-173
37.6801,1.03501e-176
37.7101,2.84381e-180
37.7401,7.19758e-184
37.7701,1.67805e-187
37.8001,3.60374e-191
37.8301,7.12907e-195
37.8601,1.29911e-198
37.8901,2.18065e-202
37.9201,3.37179e-206
37.9501,4.80248e-210
37.9801,6.30089e-214
38.0101,7.61499e-218
38.0401,8.4775e-222
38.0701,8.69357e-226
38.1001,8.21219e-230
38.1301,7.14581e-234
38.1601,5.72763e-238
38.1901,4.22892e-242
38.2201,2.87618e-246
38.2501,1.80191e-250
38.2801,1.03988e-254
38.3101,5.52792e-259
38.3401,2.7069e-263
38.3701,1.221e-267
38.4001,5.07327e-272
38.4301,1.94175e-276
38.4601,6.84587e-281
38.4901,2.22329e-285
38.5201,6.65111e-290
38.5501,1.83284e-294
38.5801,4.65248e-299
38.6101,1.08787e-303
38.6401,2.34315e-308
38.6701,4.64895e-313
38.7001,8.49651e-318
38.7301,1.43e-322
38.7601,0.0
38.7901,0.0
38.8201,0.0
38.8501,0.0
38.8801,0.0
38.9101,0.0
38.9401,0.0
38.9701,0.0
39.0001,0.0
39.0301,0.0
39.0601,0.0
39.0901,0.0
39.1201,0.0
39.1501,0.0
39.1801,0.0
39.2101,0.0
39.2401,0.0
39.2701,0.0
39.3001,0.0
39.3301,0.0
39.3601,0.0
39.3901,0.0
39.4201,0.0
39.4501,0.0
39.4801,0.0
39.5101,0.0
39.5401,0.0
39.5701,0.0
39.6001,0.0
39.6301,0.0
39.6601,0.0
39.6901,0.0
39.7201,0.0
39.7501,0.0
39.7801,0.0
39.8101,0.0
39.8401,0.0
39.8701,0.0
39.9001,0.0
39.9301,0.0
39.9601,0.0
39.9901,0.0
40.0201,0.0
40.0501,0.0
40.0801,0.0
40.1101,0.0
40.1401,0.0
40.1701,0.0
40.2001,0.0
40.2301,0.0
40.2601,0.0
40.2901,0.0
40.3201,0.0
40.3501,0.0
40.3801,0.0
40.4101,0.0
40.4401,0.0
40.4701,0.0
40.5001,0.0
40.5301,0.0
40.5601,0.0
40.5901,0.0
40.6201,0.0
40.6501,0.0
40.6801,0.0
40.7101,0.0
40.7401,0.0
40.7701,0.0
40.8001,0.0
40.8301,0.0
40.8601,0.0
40.8901,0.0
40.9201,0.0
40.9501,0.0
40.9801,0.0
41.0101,0.0
41.0401,0.0
41.0701,0.0
41.1001,0.0
41.1301,0.0
41.1601,0.0
41.1901,0.0
41.2201,0.0
41.2501,0.0
41.2801,0.0
41.3101,0.0
41.3401,0.0
41.3701,0.0
41.4001,0.0
41.4301,0.0
41.4601,0.0
41.4901,0.0
41.5201,0.0
41.5501,0.0
41.5801,0.0
41.6101,0.0
41.6401,0.0
41.6701,0.0
41.7001,0.0
41.7301,0.0
41.7601,0.0
41.7901,0.0
41.8201,0.0
41.8501,0.0
41.8801,0.0
41.9101,0.0
41.9401,0.0
41.9701,0.0
42.0001,0.0
42.0301,0.0
42.0601,0.0
42.0901,0.0
42.1201,0.0
42.1501,0.0
42.1801,0.0
42.2101,0.0
42.2401,0.0
42.2701,0.0
42.3001,0.0
42.3301,0.0
42.3601,0.0
42.3901,0.0
42.4201,0.0
42.4501,0.0
42.4801,0.0
42.5101,0.0
42.5401,0.0
42.5701,0.0
42.6001,0.0
42.6301,0.0
42.6601,0.0
42.6901,0.0
42.7201,0.0
42.7501,0.0
42.7801,0.0
42.8101,0.0
42.8401,0.0
42.8701,0.0
42.9001,0.0
42.9301,0.0
42.9601,0.0
42.9901,0.0
43.0201,0.0
43.0501,0.0
43.0801,0.0
43.1101,0.0
43.1401,0.0
43.1701,0.0
43.2001,0.0
43.2301,0.0
43.2601,0.0
43.2901,0.0
43.3201,0.0
43.3501,0.0
43.3801,0.0
43.4101,0.0
43.4401,0.0
43.4701,0.0
43.5001,0.0
43.5301,0.0
43.5601,0.0
43.5901,0.0
43.6201,0.0
43.6501,0.0
43.6801,0.0
43.7101,0.0
43.7401,0.0
43.7701,0.0
43.8001,0.0
43.8301,0.0
43.8601,0.0
43.8901,0.0
43.9201,0.0
43.9501,0.0
43.9801,0.0
44.0101,0.0
44.0401,0.0
44.0701,0.0
44.1001,0.0
44.1301,0.0
44.1601,0.0
44.1901,0.0
44.2201,0.0
44.2501,0.0
44.2801,0.0
44.3101,0.0
44.3401,0.0
44.3701,0.0
44.4001,0.0
44.4301,0.0
44.4601,0.0
44.4901,0.0
44.5201,0.0
44.5501,0.0
44.5801,0.0
44.6101,0.0
44.6401,0.0
44.6701,0.0
44.7001,0.0
44.7301,0.0
44.7601,0.0
44.7901,0.0
44.8201,0.0
44.8501,0.0
44.8801,0.0
44.9101,0.0
44.9401,0.0
44.9701,0.0
45.0001,0.0
45.0301,0.0
45.0601,0.0
45.0901,0.0
45.1201,0.0
45.1501,0.0
45.1801,0.0
45.2101,0.0
45.2401,0.0
45.2701,0.0
45.3001,0.0
45.3301,0.0
45.3601,0.0
45.3901,0.0
45.4201,0.0
45.4501,0.0
45.4801,0.0
45.5101,0.0
45.5401,0.0
45.5701,0.0
45.6001,0.0
45.6301,0.0
45.6601,0.0
45.6901,0.0
45.7201,0.0
45.7501,0.0
45.7801,0.0
45.8101,0.0
45.8401,0.0
45.8701,0.0
45.9001,0.0
45.9301,0.0
45.9601,0.0
45.9901,0.0
46.0201,0.0
46.0501,0.0
46.0801,0.0
46.1101,0.0
46.1401,0.0
46.1701,0.0
46.2001,0.0
46.2301,0.0
46.2601,0.0
46.2901,0.0
46.3201,0.0
46.3501,0.0
46.3801,0.0
46.4101,0.0
46.4401,0.0
46.4701,0.0
46.5001,0.0
46.5301,0.0
46.5601,0.0
46.5901,0.0
46.6201,0.0
46.6501,0.0
46.6801,0.0
46.7101,0.0
46.7401,0.0
46.7701,0.0
46.8001,0.0
46.8301,0.0
46.8601,0.0
46.8901,0.0
46.9201,0.0
46.9501,0.0
46.9801,0.0
47.0101,0.0
47.0401,0.0
47.0701,0.0
47.1001,0.0
47.1301,0.0
47.1601,0.0
47.1901,0.0
47.2201,0.0
47.2501,0.0
47.2801,0.0
47.3101,0.0
47.3401,0.0
47.3701,0.0
47.4001,0.0
47.4301,0.0
47.4601,0.0
47.4901,0.0
47.5201,0.0
47.5501,0.0
47.5801,0.0
47.6101,0.0
47.6401,0.0
47.6701,0.0
47.7001,0.0
47.7301,0.0
47.7601,0.0
47.7901,0.0
47.8201,0.0
47.8501,0.0
47.8801,0.0
47.9101,0.0
47.9401,0.0
47.9701,0.0
48.0001,0.0
48.0301,0.0
48.0601,0.0
48.0901,0.0
48.1201,0.0
48.1501,0.0
48.1801,0.0
48.2101,0.0
48.2401,0.0
48.2701,0.0
48.3001,0.0
48.3301,0.0
48.3601,0.0
48.3901,0.0
48.4201,0.0
48.4501,0.0
48.4801,0.0
48.5101,0.0
48.5401,0.0
48.5701,0.0
48.6001,0.0
48.6301,0.0
48.6601,0.0
48.6901,0.0
48.7201,0.0
48.7501,0.0
48.7801,0.0
48.8101,0.0
48.8401,0.0
48.8701,0.0
48.9001,0.0
48.9301,0.0
48.9601,0.0
48.9901,0.0
49.0201,0.0
49.0501,0.0
49.0801,0.0
49.1101,0.0
49.1401,0.0
49.1701,0.0
49.2001,0.0
49.2301,0.0
49.2601,0.0
49.2901,0.0
49.3201,0.0
49.3501,0.0
49.3801,0.0
49.4101,0.0
49.4401,0.0
49.4701,0.0
49.5001,0.0
49.5301,0.0
49.5601,0.0
49.5901,0.0
49.6201,0.0
49.6501,0.0
49.6801,0.0
49.7101,0.0
49.7401,0.0
49.7701,0.0
49.8001,0.0
49.8301,0.0
49.8601,0.0
49.8901,0.0
49.9201,0.0
49.9501,0.0
49.9801,0.0
50.0101,0.0
50.0401,0.0
50.0701,0.0
50.1001,0.0
50.1301,0.0
50.1601,0.0
50.1901,0.0
50.2201,0.0
50.2501,0.0
50.2801,0.0
50.3101,0.0
50.3401,0.0
50.3701,0.0
50.4001,0.0
50.4301,0.0
50.4601,0.0
50.4901,0.0
50.5201,0.0
50.5501,0.0
50.5801,0.0
50.6101,0.0
50.6401,0.0
50.6701,0.0
50.7001,0.0
50.7301,0.0
50.7601,0.0
50.7901,0.0
50.8201,0.0
50.8501,0.0
50.8801,0.0
50.9101,0.0
50.9401,0.0
50.9701,0.0
51.0001,0.0
51.0301,0.0
51.0601,0.0
51.0901,0.0
51.1201,0.0
51.1501,0.0
51.1801,0.0
51.2101,0.0
51.2401,0.0
51.2701,0.0
51.3001,0.0
51.3301,0.0
51.3601,0.0
51.3901,0.0
51.4201,0.0
51.4501,0.0
51.4801,0.0
51.5101,0.0
51.5401,0.0
51.5701,0.0
51.6001,0.0
51.6301,0.0
51.6601,0.0
51.6901,0.0
51.7201,0.0
51.7501,0.0
51.7801,0.0
51.8101,0.0
51.8401,0.0
51.8701,0.0
51.9001,0.0
51.9301,0.0
51.9601,0.0
51.9901,0.0
52.0201,0.0
52.0501,0.0
52.0801,0.0
52.1101,0.0
52.1401,0.0
52.1701,0.0
52.2001,0.0
52.2301,0.0
52.2601,0.0
52.2901,0.0
52.3201,0.0
52.3501,0.0
52.3801,0.0
52.4101,0.0
52.4401,0.0
52.4701,0.0
52.5001,0.0
52.5301,0.0
52.5601,0.0
52.5901,0.0
52.6201,0.0
52.6501,0.0
52.6801,0.0
52.7101,0.0
52.7401,0.0
52.7701,0.0
52.8001,0.0
52.8301,0.0
52.8601,0.0
52.8901,0.0
52.9201,0.0
52.9501,0.0
52.9801,0.0
53.0101,0.0
53.0401,0.0
53.0701,0.0
53.1001,0.0
53.1301,0.0
53.1601,0.0
53.1901,0.0
53.2201,0.0
53.2501,0.0
53.2801,0.0
53.3101,0.0
53.3401,0.0
53.3701,0.0
53.4001,0.0
53.4301,0.0
53.4601,0.0
53.4901,0.0
53.5201,0.0
53.5501,0.0
53.5801,0.0
53.6101,0.0
53.6401,0.0
53.6701,0.0
53.7001,0.0
53.7301,0.0
53.7601,0.0
53.7901,0.0
53.8201,0.0
53.8501,0.0
53.8801,0.0
53.9101,0.0
53.9401,0.0
53.9701,0.0
54.0001,0.0
54.0301,0.0
54.0601,0.0
54.0901,0.0
54.1201,0.0
54.1501,0.0
54.1801,0.0
54.2101,0.0
54.2401,0.0
54.2701,0.0
54.3001,0.0
54.3301,0.0
54.3601,0.0
54.3901,0.0
54.4201,0.0
54.4501,0.0
54.4801,0.0
54.5101,0.0
54.5401,0.0
54.5701,0.0
54.6001,0.0
54.6301,0.0
54.6601,0.0
54.6901,0.0
54.7201,0.0
54.7501,0.0
54.7801,0.0
54.8101,0.0
54.8401,0.0
54.8701,0.0
54.9001,0.0
54.9301,0.0
54.9601,0.0
54.9901,0.0
55.0201,0.0
55.0501,0.0
55.0801,0.0
55.1101,0.0
55.1401,0.0
55.1701,0.0
55.2001,0.0
55.2301,0.0
55.2601,0.0
55.2901,0.0
55.3201,0.0
55.3501,0.0
55.3801,0.0
55.4101,0.0
55.4401,0.0
55.4701,0.0
55.5001,0.0
55.5301,0.0
55.5601,0.0
55.5901,0.0
55.6201,0.0
55.6501,0.0
55.6801,0.0
55.7101,0.0
55.7401,0.0
55.7701,0.0
55.8001,0.0
55.8301,0.0
55.8601,0.0
55.8901,0.0
55.9201,0.0
55.9501,0.0
55.9801,0.0
56.0101,0.0
56.0401,0.0
56.0701,0.0
56.1001,0.0
56.1301,0.0
56.1601,0.0
56.1901,0.0
56.2201,0.0
56.2501,0.0
56.2801,0.0
56.3101,0.0
56.3401,0.0
56.3701,0.0
56.4001,0.0
56.4301,0.0
56.4601,0.0
56.4901,0.0
56.5201,0.0
56.5501,0.0
56.5801,0.0
56.6101,0.0
56.6401,0.0
56.6701,0.0
56.7001,0.0
56.7301,0.0
56.7601,0.0
56.7901,0.0
56.8201,0.0
56.8501,0.0
56.8801,0.0
56.9101,0.0
56.9401,0.0
56.9701,0.0
57.0001,0.0
57.0301,0.0
57.0601,0.0
57.0901,0.0
57.1201,0.0
57.1501,0.0
57.1801,0.0
57.2101,0.0
57.2401,0.0
57.2701,0.0
57.3001,0.0
57.3301,0.0
57.3601,0.0
57.3901,0.0
57.4201,0.0
57.4501,0.0
57.4801,0.0
57.5101,0.0
57.5401,0.0
57.5701,0.0
57.6001,0.0
57.6301,0.0
57.6601,0.0
57.6901,0.0
57.7201,0.0
57.7501,0.0
57.7801,0.0
57.8101,0.0
57.8401,0.0
57.8701,0.0
57.9001,0.0
57.9301,0.0
57.9601,0.0
57.9901,0.0
58.0201,0.0
58.0501,0.0
58.0801,0.0
58.1101,0.0
58.1401,0.0
58.1701,0.0
58.2001,0.0
58.2301,0.0
58.2601,0.0
58.2901,0.0
58.3201,0.0
58.3501,0.0
58.3801,0.0
58.4101,0.0
58.4401,0.0
58.4701,0.0
58.5001,0.0
58.5301,0.0
58.5601,0.0
58.5901,0.0
58.6201,0.0
58.6501,0.0
58.6801,0.0
58.7101,0.0
58.7401,0.0
58.7701,0.0
58.8001,0.0
58.8301,0.0
58.8601,0.0
58.8901,0.0
58.9201,0.0
58.9501,0.0
58.9801,0.0
59.0101,0.0
59.0401,0.0
59.0701,0.0
59.1001,0.0
59.1301,0.0
59.1601,0.0
59.1901,0.0
59.2201,0.0
59.2501,0.0
59.2801,0.0
59.3101,0.0
59.3401,0.0
59.3701,0.0
59.4001,0.0
59.4301,0.0
59.4601,0.0
59.4901,0.0
59.5201,0.0
59.5501,0.0
59.5801,0.0
59.6101,0.0
59.6401,0.0
59.6701,0.0
59.7001,0.0
59.7301,0.0
59.7601,0.0
59.7901,0.0
59.8201,0.0
59.8501,0.0
59.8801,0.0
59.9101,0.0
59.9401,0.0
59.9701,0.0
60.0001,0.0
60.0301,0.0
60.0601,0.0
60.0901,0.0
60.1201,0.0
60.1501,0.0
60.1801,0.0
60.2101,0.0
60.2401,0.0
60.2701,0.0
60.3001,0.0
60.3301,0.0
60.3601,0.0
60.3901,0.0
60.4201,0.0
60.4501,0.0
60.4801,0.0
60.5101,0.0
60.5401,0.0
60.5701,0.0
60.6001,0.0
60.6301,0.0
60.6601,0.0
60.6901,0.0
60.7201,0.0
60.7501,0.0
60.7801,0.0
60.8101,0.0
60.8401,0.0
60.8701,0.0
60.9001,0.0
60.9301,0.0
60.9601,0.0
60.9901,0.0
61.0201,0.0
61.0501,0.0
61.0801,0.0
61.1101,0.0
61.1401,0.0
61.1701,0.0
61.2001,0.0
61.2301,0.0
61.2601,0.0
61.2901,0.0
61.3201,0.0
61.3501,0.0
61.3801,0.0
61.4101,0.0
61.4401,0.0
61.4701,0.0
61.5001,0.0
61.5301,0.0
61.5601,0.0
61.5901,0.0
61.6201,0.0
61.6501,0.0
61.6801,0.0
61.7101,0.0
61.7401,0.0
61.7701,0.0
61.8001,0.0
61.8301,0.0
61.8601,0.0
61.8901,0.0
61.9201,0.0
61.9501,0.0
61.9801,0.0
62.0101,0.0
62.0401,0.0
62.0701,0.0
62.1001,0.0
62.1301,0.0
62.1601,0.0
62.1901,0.0
62.2201,0.0
62.2501,0.0
62.2801,0.0
62.3101,0.0
62.3401,0.0
62.3701,0.0
62.4001,0.0
62.4301,0.0
62.4601,0.0
62.4901,0.0
62.5201,0.0
62.5501,0.0
62.5801,0.0
62.6101,0.0
62.6401,0.0
62.6701,0.0
62.7001,0.0
62.7301,0.0
62.7601,0.0
62.7901,0.0
62.8201,0.0
62.8501,0.0
62.8801,0.0
62.9101,0.0
62.9401,0.0
62.9701,0.0
63.0001,0.0
63.0301,0.0
63.0601,0.0
63.0901,0.0
63.1201,0.0
63.1501,0.0
63.1801,0.0
63.2101,0.0
63.2401,0.0
63.2701,0.0
63.3001,0.0
63.3301,0.0
63.3601,0.0
63.3901,0.0
63.4201,0.0
63.4501,0.0
63.4801,0.0
63.5101,0.0
63.5401,0.0
63.5701,0.0
63.6001,0.0
63.6301,0.0
63.6601,0.0
63.6901,0.0
63.7201,0.0
63.7501,0.0
63.7801,0.0
63.8101,0.0
63.8401,0.0
63.8701,0.0
63.9001,0.0
63.9301,0.0
63.9601,0.0
63.9901,0.0
64.0201,0.0
64.0501,0.0
64.0801,0.0
64.1101,0.0
64.1401,0.0
64.1701,0.0
64.2001,0.0
64.2301,0.0
64.2601,0.0
64.2901,0.0
64.3201,0.0
64.3501,0.0
64.3801,0.0
64.4101,0.0
64.4401,0.0
64.4701,0.0
64.5001,0.0
64.5301,0.0
64.5601,0.0
64.5901,0.0
64.6201,0.0
64.6501,0.0
64.6801,0.0
64.7101,0.0
64.7401,0.0
64.7701,0.0
64.8001,0.0
64.8301,0.0
64.8601,0.0
64.8901,0.0
64.9201,0.0
64.9501,0.0
64.9801,0.0
65.0101,0.0
65.0401,0.0
65.0701,0.0
65.1001,0.0
65.1301,0.0
65.1601,0.0
65.1901,0.0
65.2201,0.0
65.2501,0.0
65.2801,0.0
65.3101,0.0
65.3401,0.0
65.3701,0.0
65.4001,0.0
65.4301,0.0
65.4601,0.0
65.4901,0.0
65.5201,0.0
65.5501,0.0
65.5801,0.0
65.6101,0.0
65.6401,0.0
65.6701,0.0
65.7001,0.0
65.7301,0.0
65.7601,0.0
65.7901,0.0
65.8201,0.0
65.8501,0.0
65.8801,0.0
65.9101,0.0
65.9401,0.0
65.9701,0.0
66.0001,0.0
66.0301,0.0
66.0601,0.0
66.0901,0.0
66.1201,0.0
66.1501,0.0
66.1801,0.0
66.2101,0.0
66.2401,0.0
66.2701,0.0
66.3001,0.0
66.3301,0.0
66.3601,0.0
66.3901,0.0
66.4201,0.0
66.4501,0.0
66.4801,0.0
66.5101,0.0
66.5401,0.0
66.5701,0.0
66.6001,0.0
66.6301,0.0
66.6601,0.0
66.6901,0.0
66.7201,0.0
66.7501,0.0
66.7801,0.0
66.8101,0.0
66.8401,0.0
66.8701,0.0
66.9001,0.0
66.9301,0.0
66.9601,0.0
66.9901,0.0
67.0201,0.0
67.0501,0.0
67.0801,0.0
67.1101,0.0
67.1401,0.0
67.1701,0.0
67.2001,0.0
67.2301,0.0
67.2601,0.0
67.2901,0.0
67.3201,0.0
67.3501,0.0
67.3801,0.0
67.4101,0.0
67.4401,0.0
67.4701,0.0
67.5001,0.0
67.5301,0.0
67.5601,0.0
67.5901,0.0
67.6201,0.0
67.6501,0.0
67.6801,0.0
67.7101,0.0
67.7401,0.0
67.7701,0.0
67.8001,0.0
67.8301,0.0
67.8601,0.0
67.8901,0.0
67.9201,0.0
67.9501,0.0
67.9801,0.0
68.0101,0.0
68.0401,0.0
68.0701,0.0
68.1001,0.0
68.1301,0.0
68.1601,0.0
68.1901,0.0
68.2201,0.0
68.2501,0.0
68.2801,0.0
68.3101,0.0
68.3401,0.0
68.3701,0.0
68.4001,0.0
68.4301,0.0
68.4601,0.0
68.4901,0.0
68.5201,0.0
68.5501,0.0
68.5801,0.0
68.6101,0.0
68.6401,0.0
68.6701,0.0
68.7001,0.0
68.7301,0.0
68.7601,0.0
68.7901,0.0
68.8201,0.0
68.8501,0.0
68.8801,0.0
68.9101,0.0
68.9401,0.0
68.9701,0.0
69.0001,0.0
69.0301,0.0
69.0601,0.0
69.0901,0.0
69.1201,0.0
69.1501,0.0
69.1801,0.0
69.2101,0.0
69.2401,0.0
69.2701,0.0
69.3001,0.0
69.3301,0.0
69.3601,0.0
69.3901,0.0
69.4201,0.0
69.4501,0.0
69.4801,0.0
69.5101,0.0
69.5401,0.0
69.5701,0.0
69.6001,0.0
69.6301,0.0
69.6601,0.0
69.6901,0.0
69.7201,0.0
69.7501,0.0
69.7801,0.0
69.8101,0.0
69.8401,0.0
69.8701,0.0
69.9001,0.0
69.9301,0.0
69.9601,0.0
69.9901,0.0
70.0201,0.0
70.0501,0.0
70.0801,0.0
70.1101,0.0
70.1401,0.0
70.1701,0.0
70.2001,0.0
70.2301,0.0
70.2601,0.0
70.2901,0.0
70.3201,0.0
70.3501,0.0
70.3801,0.0
70.4101,0.0
70.4401,0.0
70.4701,0.0
70.5001,0.0
70.5301,0.0
70.5601,0.0
70.5901,0.0
70.6201,0.0
70.6501,0.0
70.6801,0.0
70.7101,0.0
70.7401,0.0
70.7701,0.0
70.8001,0.0
70.8301,0.0
70.8601,0.0
70.8901,0.0
70.9201,0.0
70.9501,0.0
70.9801,0.0
71.0101,0.0
71.0401,0.0
71.0701,0.0
71.1001,0.0
71.1301,0.0
71.1601,0.0
71.1901,0.0
71.2201,0.0
71.2501,0.0
71.2801,0.0
71.3101,0.0
71.3401,0.0
71.3701,0.0
71.4001,0.0
71.4301,0.0
71.4601,0.0
71.4901,0.0
71.5201,0.0
71.5501,0.0
71.5801,0.0
71.6101,0.0
71.6401,0.0
71.6701,0.0
71.7001,0.0
71.7301,0.0
71.7601,0.0
71.7901,0.0
71.8201,0.0
71.8501,0.0
71.8801,0.0
71.9101,0.0
71.9401,0.0
71.9701,0.0
72.0001,0.0
72.0301,0.0
72.0601,0.0
72.0901,0.0
72.1201,0.0
72.1501,0.0
72.1801,0.0
72.2101,0.0
72.2401,0.0
72.2701,0.0
72.3001,0.0
72.3301,0.0
72.3601,0.0
72.3901,0.0
72.4201,0.0
72.4501,0.0
72.4801,0.0
72.5101,0.0
72.5401,0.0
72.5701,0.0
72.6001,0.0
72.6301,0.0
72.6601,0.0
72.6901,0.0
72.7201,0.0
72.7501,0.0
72.7801,0.0
72.8101,0.0
72.8401,0.0
72.8701,0.0
72.9001,0.0
72.9301,0.0
72.9601,0.0
72.9901,0.0
73.0201,0.0
73.0501,0.0
73.0801,0.0
73.1101,0.0
73.1401,0.0
73.1701,0.0
73.2001,0.0
73.2301,0.0
73.2601,0.0
73.2901,0.0
73.3201,0.0
73.3501,0.0
73.3801,0.0
73.4101,0.0
73.4401,0.0
73.4701,0.0
73.5001,0.0
73.5301,0.0
73.5601,0.0
73.5901,0.0
73.6201,0.0
73.6501,0.0
73.6801,0.0
73.7101,0.0
73.7401,0.0
73.7701,0.0
73.8001,0.0
73.8301,0.0
73.8601,0.0
73.8901,0.0
73.9201,0.0
73.9501,0.0
73.9801,0.0
74.0101,0.0
74.0401,0.0
74.0701,0.0
74.1001,0.0
74.1301,0.0
74.1601,0.0
74.1901,0.0
74.2201,0.0
74.2501,0.0
74.2801,0.0
74.3101,0.0
74.3401,0.0
74.3701,0.0
74.4001,0.0
74.4301,0.0
74.4601,0.0
74.4901,0.0
74.5201,0.0
74.5501,0.0
74.5801,0.0
74.6101,0.0
74.6401,0.0
74.6701,0.0
74.7001,0.0
74.7301,0.0
74.7601,0.0
74.7901,0.0
74.8201,0.0
74.8501,0.0
74.8801,0.0
74.9101,0.0
74.9401,0.0
74.9701,0.0
75.0001,0.0
75.0301,0.0
75.0601,0.0
75.0901,0.0
75.1201,0.0
75.1501,0.0
75.1801,0.0
75.2101,0.0
75.2401,0.0
75.2701,0.0
75.3001,0.0
75.3301,0.0
75.3601,0.0
75.3901,0.0
75.4201,0.0
75.4401,0.0