File: wang_2023/xrd/xrd.csv
32.0618, -0.000748829
32.2501, -0.000748829
32.4384, -0.000748829
32.6268, -0.000748829
32.8151, -0.000748829
33.0034, -0.000748829
33.1918, -0.000748829
33.3801, -0.000748829
33.5685, -0.000748829
33.7568, -0.000748829
33.9451, -0.000748829
34.1335, -0.000748829
34.259, -0.000748829
34.3351, 0.0065999
34.3863, 0.0164889
34.3882, 0.0364484
34.3892, 0.0462014
34.4029, 0.0257882
34.4482, 0.00741642
34.4529, 0.0564079
34.4537, 0.0645732
34.4545, 0.0727384
34.4553, 0.0809037
34.4561, 0.0890689
34.4569, 0.0972342
34.4577, 0.105399
34.4585, 0.113565
34.4593, 0.12173
34.4601, 0.129895
34.4609, 0.13806
34.4617, 0.146226
34.4625, 0.154391
34.4633, 0.162556
34.4641, 0.170721
34.4648, 0.178887
34.4656, 0.187052
34.4664, 0.195217
34.4672, 0.203382
34.468, 0.211548
34.4688, 0.219713
34.4696, 0.227878
34.4704, 0.236043
34.4712, 0.244209
34.472, 0.252374
34.4728, 0.260539
34.4736, 0.268705
34.4744, 0.27687
34.4752, 0.285035
34.476, 0.2932
34.4768, 0.301366
34.4776, 0.309531
34.4784, 0.317696
34.4791, 0.325861
34.4799, 0.334027
34.4807, 0.342192
34.4815, 0.350357
34.4823, 0.358522
34.4831, 0.366688
34.4839, 0.374853
34.4847, 0.383018
34.4855, 0.391183
34.4863, 0.399349
34.4871, 0.407514
34.4879, 0.415679
34.4887, 0.423844
34.4895, 0.43201
34.4903, 0.440175
34.4911, 0.44834
34.4919, 0.456505
34.4927, 0.464671
34.4935, 0.472836
34.4942, 0.481001
34.495, 0.489166
34.4958, 0.497332
34.4966, 0.505497
34.4974, 0.513662
34.4982, 0.521827
34.499, 0.529993
34.4998, 0.538158
34.5006, 0.546323
34.5142, 0.55721
34.5652, 0.565375
34.5659, 0.572633
34.5667, 0.580799
34.5675, 0.588964
34.5683, 0.597129
34.5691, 0.605294
34.5699, 0.61346
34.5707, 0.621625
34.5715, 0.62979
34.5723, 0.637955
34.5731, 0.646121
34.5739, 0.654286
34.5747, 0.662451
34.5755, 0.670616
34.5763, 0.678782
34.5771, 0.686947
34.5779, 0.695112
34.5787, 0.703277
34.5795, 0.711443
34.5802, 0.719608
34.581, 0.727773
34.5818, 0.735938
34.5826, 0.744104
34.5834, 0.752269
34.5842, 0.760434
34.585, 0.768599
34.5858, 0.776765
34.5866, 0.78493
34.5874, 0.793095
34.5882, 0.80126
34.589, 0.809426
34.5898, 0.817591
34.5906, 0.825756
34.5914, 0.833921
34.5922, 0.842087
34.593, 0.850252
34.5938, 0.858417
34.5946, 0.866582
34.5953, 0.874748
34.5961, 0.882913
34.5969, 0.891078
34.5977, 0.899243
34.5985, 0.907409
34.5993, 0.915574
34.6001, 0.923739
34.6009, 0.931904
34.6017, 0.94007
34.6025, 0.948235
34.6033, 0.9564
34.6041, 0.964565
34.6049, 0.972731
34.6057, 0.980896
34.6065, 0.989061
34.6201, 0.999767
34.6412, 0.0559543
34.6419, 0.0627587
34.6427, 0.0709239
34.6435, 0.0790892
34.6443, 0.0872544
34.6451, 0.0954197
34.6459, 0.103585
34.6466, 0.11175
34.6474, 0.119915
34.6482, 0.128081
34.649, 0.136246
34.6498, 0.144411
34.6506, 0.152576
34.6515, 0.161195
34.6522, 0.168907
34.653, 0.177072
34.6538, 0.185237
34.6546, 0.193403
34.6554, 0.201568
34.6562, 0.209733
34.657, 0.217898
34.6578, 0.226064
34.6586, 0.234229
34.6594, 0.242394
34.6602, 0.250559
34.661, 0.258725
34.6617, 0.26689
34.6625, 0.275055
34.6633, 0.283221
34.6641, 0.291386
34.6649, 0.299551
34.6657, 0.307716
34.6665, 0.315882
34.6673, 0.324047
34.6681, 0.332212
34.6689, 0.340377
34.6697, 0.348543
34.6705, 0.356708
34.6713, 0.364873
34.6721, 0.373038
34.6729, 0.381204
34.6737, 0.389369
34.6745, 0.397534
34.6753, 0.405699
34.6761, 0.413865
34.6768, 0.42203
34.6776, 0.430195
34.6784, 0.43836
34.6792, 0.446526
34.68, 0.454691
34.6808, 0.462856
34.6816, 0.471021
34.6824, 0.479187
34.6832, 0.487352
34.684, 0.495517
34.6848, 0.503682
34.6856, 0.511848
34.6864, 0.520013
34.6872, 0.528178
34.688, 0.536343
34.6888, 0.544509
34.6923, 1.00839
34.7024, 0.555577
34.7538, 0.56719
34.7545, 0.575355
34.7553, 0.58352
34.7561, 0.591686
34.7569, 0.599851
34.7577, 0.608016
34.7585, 0.616181
34.7593, 0.624347
34.7601, 0.632512
34.7606, 0.960029
34.7609, 0.640677
34.7614, 0.968194
34.7617, 0.648842
34.7622, 0.97636
34.7625, 0.657008
34.763, 0.984525
34.7633, 0.665173
34.7638, 0.99269
34.7641, 0.673338
34.7643, 0.0310049
34.7646, 1.00086
34.7649, 0.681503
34.7657, 0.689669
34.7659, 0.0465416
34.7665, 0.697834
34.7673, 0.705999
34.7681, 0.714164
34.7689, 0.72233
34.7696, 0.730495
34.7704, 0.73866
34.7712, 0.746825
34.772, 0.754991
34.7728, 0.763156
34.7736, 0.771321
34.7744, 0.779486
34.7752, 0.787652
34.776, 0.795817
34.7768, 0.803982
34.7776, 0.812147
34.7784, 0.820313
34.7792, 0.828478
34.78, 0.836643
34.7808, 0.844808
34.7816, 0.852974
34.7824, 0.861139
34.7832, 0.869304
34.7839, 0.877469
34.7848, 0.886542
34.7856, 0.894707
34.7864, 0.902872
34.7872, 0.911038
34.788, 0.919203
34.7888, 0.927368
34.7896, 0.935533
34.7904, 0.943699
34.7912, 0.951864
34.7982, 0.0564079
34.799, 0.0645732
34.7998, 0.0727384
34.8006, 0.0809037
34.8014, 0.0890689
34.8022, 0.0972342
34.803, 0.105399
34.8038, 0.113565
34.8046, 0.12173
34.8054, 0.129895
34.8062, 0.13806
34.807, 0.146226
34.8077, 0.154391
34.8085, 0.162556
34.8093, 0.170721
34.8101, 0.178887
34.8109, 0.187052
34.8117, 0.195217
34.8125, 0.203382
34.8133, 0.211548
34.8141, 0.219713
34.8149, 0.227878
34.8156, 0.55721
34.8157, 0.236043
34.8165, 0.244209
34.8173, 0.252374
34.8181, 0.260539
34.8189, 0.268705
34.8197, 0.27687
34.8205, 0.285035
34.8213, 0.2932
34.8221, 0.301366
34.8228, 0.309531
34.8236, 0.317696
34.8244, 0.00265336
34.8244, 0.325861
34.8249, 0.00832367
34.8252, 0.334027
34.8258, 0.017623
34.826, 0.342192
34.8268, 0.350357
34.8276, 0.358522
34.8284, 0.366688
34.8292, 0.374853
34.83, 0.383018
34.8308, 0.391183
34.8316, 0.399349
34.8324, 0.407514
34.8332, 0.415679
34.834, 0.423844
34.8348, 0.43201
34.8356, 0.440175
34.8364, 0.44834
34.8371, 0.456505
34.8379, 0.464671
34.8387, 0.472836
34.8395, 0.481001
34.8403, 0.489166
34.8411, 0.497332
34.8419, 0.505497
34.8427, 0.513662
34.8435, 0.521827
34.8443, 0.529993
34.8451, 0.538158
34.8459, 0.546323
34.9621, -0.00129318
35.1379, -0.000748829
35.3263, -0.000748829
35.5146, -0.000748829
35.7029, -0.000748829
35.8913, -0.000748829
36.0377, -0.00165608
71.487, -0.000748829
71.6754, -0.000748829
71.8637, -0.000748829
72.052, -0.000748829
72.2404, -0.000748829
72.4288, -6.83915e-05
72.5544, 0.000612046
72.6303, 0.00605555
72.6942, 0.0183034
72.7457, 0.0310049
72.7466, 0.0407579
72.8103, 0.0500572
72.8111, 0.0582224
72.8119, 0.0663877
72.8255, 0.0770932
72.8703, 0.0215695
72.9339, 0.0300977
72.9357, 0.0482427
72.9505, 0.039397
72.9676, 0.0536862
72.9684, 0.0618514
72.9692, 0.0700167
72.97, 0.0781819
73.0415, 0.00673599
73.0582, 0.0169426
73.0594, 0.0291904
73.0602, 0.0373557
73.1946, -0.000476654
73.3704, -0.000748829
73.5587, -0.000748829
73.7471, -0.000748829
73.9354, -0.000748829
74.1237, -0.000748829
74.3121, -0.000748829
74.5004, -0.000748829
74.6887, -0.000748829
74.8771, -0.000748829
75.0654, -0.000748829
75.2538, -0.000748829
75.4421, -0.000748829