File: li_2014/200_xrd/curve_2_fit.dat
30.7028,2.0779e-23
30.7128,2.46886e-23
30.7228,2.93253e-23
30.7328,3.48226e-23
30.7428,4.13382e-23
30.7528,4.90587e-23
30.7628,5.82041e-23
30.7728,6.9034e-23
30.7828,8.18552e-23
30.7928,9.70291e-23
30.8028,1.14982e-22
30.8128,1.36217e-22
30.8228,1.61327e-22
30.8328,1.9101e-22
30.8428,2.26087e-22
30.8528,2.67528e-22
30.8628,3.16472e-22
30.8728,3.74261e-22
30.8828,4.42473e-22
30.8928,5.22964e-22
30.9028,6.17917e-22
30.9128,7.29896e-22
30.9228,8.61916e-22
30.9328,1.01752e-21
30.9428,1.20086e-21
30.9528,1.41682e-21
30.9628,1.67113e-21
30.9728,1.97051e-21
30.9828,2.32285e-21
30.9928,2.73738e-21
31.0028,3.22494e-21
31.0128,3.79824e-21
31.0228,4.47214e-21
31.0328,5.26407e-21
31.0428,6.19443e-21
31.0528,7.28707e-21
31.0628,8.56994e-21
31.0728,1.00757e-20
31.0828,1.18426e-20
31.0928,1.39152e-20
31.1028,1.63458e-20
31.1128,1.91954e-20
31.1228,2.25351e-20
31.1328,2.64481e-20
31.1428,3.10315e-20
31.1528,3.63986e-20
31.1628,4.26814e-20
31.1728,5.00341e-20
31.1828,5.86362e-20
31.1928,6.86972e-20
31.2028,8.04609e-20
31.2128,9.42114e-20
31.2228,1.1028e-19
31.2328,1.29051e-19
31.2428,1.50973e-19
31.2528,1.76567e-19
31.2628,2.06439e-19
31.2728,2.41295e-19
31.2828,2.81954e-19
31.2928,3.29367e-19
31.3028,3.84641e-19
31.3128,4.49059e-19
31.3228,5.24113e-19
31.3328,6.11531e-19
31.3428,7.13322e-19
31.3528,8.31813e-19
31.3628,9.69702e-19
31.3728,1.13012e-18
31.3828,1.31669e-18
31.3928,1.53361e-18
31.4028,1.78574e-18
31.4128,2.07872e-18
31.4228,2.41906e-18
31.4328,2.8143e-18
31.4428,3.27315e-18
31.4528,3.80571e-18
31.4628,4.42362e-18
31.4728,5.14035e-18
31.4828,5.97146e-18
31.4928,6.93492e-18
31.5028,8.05147e-18
31.5128,9.34505e-18
31.5228,1.08433e-17
31.5328,1.25781e-17
31.5428,1.45861e-17
31.5528,1.69098e-17
31.5628,1.95979e-17
31.5728,2.27067e-17
31.5828,2.63009e-17
31.5928,3.04552e-17
31.6028,3.52553e-17
31.6128,4.08e-17
31.6228,4.72029e-17
31.6328,5.45948e-17
31.6428,6.31256e-17
31.6528,7.29682e-17
31.6628,8.43207e-17
31.6728,9.7411e-17
31.6828,1.125e-16
31.6928,1.29889e-16
31.7028,1.49922e-16
31.7128,1.72994e-16
31.7228,1.99558e-16
31.7328,2.30134e-16
31.7428,2.65317e-16
31.7528,3.05789e-16
31.7628,3.52332e-16
31.7728,4.0584e-16
31.7828,4.67337e-16
31.7928,5.37996e-16
31.8028,6.19157e-16
31.8128,7.12353e-16
31.8228,8.19338e-16
31.8328,9.42114e-16
31.8428,1.08297e-15
31.8528,1.24452e-15
31.8628,1.42976e-15
31.8728,1.64208e-15
31.8828,1.88538e-15
31.8928,2.1641e-15
31.9028,2.4833e-15
31.9128,2.84874e-15
31.9228,3.267e-15
31.9328,3.74558e-15
31.9428,4.29301e-15
31.9528,4.91901e-15
31.9628,5.63463e-15
31.9728,6.45249e-15
31.9828,7.38689e-15
31.9928,8.45413e-15
32.0028,9.67273e-15
32.0128,1.10637e-14
32.0228,1.26511e-14
32.0328,1.4462e-14
32.0428,1.65272e-14
32.0528,1.88818e-14
32.0628,2.15656e-14
32.0728,2.46237e-14
32.0828,2.81071e-14
32.0928,3.2074e-14
32.1028,3.659e-14
32.1128,4.17297e-14
32.1228,4.75774e-14
32.1328,5.42286e-14
32.1428,6.17917e-14
32.1528,7.03889e-14
32.1628,8.01588e-14
32.1728,9.1258e-14
32.1828,1.03864e-13
32.1928,1.18176e-13
32.2028,1.34421e-13
32.2128,1.52855e-13
32.2228,1.73766e-13
32.2328,1.9748e-13
32.2428,2.24364e-13
32.2528,2.54834e-13
32.2628,2.89356e-13
32.2728,3.2846e-13
32.2828,3.72739e-13
32.2928,4.22863e-13
32.3028,4.79587e-13
32.3128,5.43762e-13
32.3228,6.16343e-13
32.3328,6.98409e-13
32.3428,7.91169e-13
32.3528,8.95988e-13
32.3628,1.0144e-12
32.3728,1.14812e-12
32.3828,1.29909e-12
32.3928,1.46948e-12
32.4028,1.66173e-12
32.4128,1.87858e-12
32.4228,2.12311e-12
32.4328,2.39877e-12
32.4428,2.70943e-12
32.4528,3.05943e-12
32.4628,3.45363e-12
32.4728,3.89747e-12
32.4828,4.39708e-12
32.4928,4.95927e-12
32.5028,5.59171e-12
32.5128,6.30295e-12
32.5228,7.10259e-12
32.5328,8.00133e-12
32.5428,9.01115e-12
32.5528,1.01455e-11
32.5628,1.14192e-11
32.5728,1.28491e-11
32.5828,1.44538e-11
32.5928,1.62542e-11
32.6028,1.82735e-11
32.6128,2.05377e-11
32.6228,2.30756e-11
32.6328,2.59195e-11
32.6428,2.91055e-11
32.6528,3.26735e-11
32.6628,3.66682e-11
32.6728,4.11392e-11
32.6828,4.61418e-11
32.6928,5.17377e-11
32.7028,5.79953e-11
32.7128,6.49906e-11
32.7228,7.28084e-11
32.7328,8.15428e-11
32.7428,9.12983e-11
32.7528,1.02191e-10
32.7628,1.1435e-10
32.7728,1.27918e-10
32.7828,1.43054e-10
32.7928,1.59934e-10
32.8028,1.78754e-10
32.8128,1.9973e-10
32.8228,2.23102e-10
32.8328,2.49136e-10
32.8428,2.78127e-10
32.8528,3.104e-10
32.8628,3.46317e-10
32.8728,3.86277e-10
32.8828,4.30722e-10
32.8928,4.8014e-10
32.9028,5.35072e-10
32.9128,5.96113e-10
32.9228,6.63924e-10
32.9328,7.39232e-10
32.9428,8.22842e-10
32.9528,9.1564e-10
32.9628,1.01861e-09
32.9728,1.13282e-09
32.9828,1.25947e-09
32.9928,1.39987e-09
33.0028,1.55547e-09
33.0128,1.72785e-09
33.0228,1.91878e-09
33.0328,2.13019e-09
33.0428,2.36419e-09
33.0528,2.62313e-09
33.0628,2.90958e-09
33.0728,3.22637e-09
33.0828,3.57661e-09
33.0928,3.9637e-09
33.1028,4.3914e-09
33.1128,4.86383e-09
33.1228,5.3855e-09
33.1328,5.96139e-09
33.1428,6.59693e-09
33.1528,7.29808e-09
33.1628,8.07139e-09
33.1728,8.92404e-09
33.1828,9.86387e-09
33.1928,1.08995e-08
33.2028,1.20403e-08
33.2128,1.32966e-08
33.2228,1.46798e-08
33.2328,1.62021e-08
33.2428,1.7877e-08
33.2528,1.97192e-08
33.2628,2.1745e-08
33.2728,2.39718e-08
33.2828,2.6419e-08
33.2928,2.91075e-08
33.3028,3.20601e-08
33.3128,3.5302e-08
33.3228,3.88603e-08
33.3328,4.27647e-08
33.3428,4.70477e-08
33.3528,5.17444e-08
33.3628,5.68934e-08
33.3728,6.25365e-08
33.3828,6.87192e-08
33.3928,7.5491e-08
33.4028,8.29059e-08
33.4128,9.10225e-08
33.4228,9.99044e-08
33.4328,1.09621e-07
33.4428,1.20247e-07
33.4528,1.31865e-07
33.4628,1.44563e-07
33.4728,1.58438e-07
33.4828,1.73593e-07
33.4928,1.90143e-07
33.5028,2.08209e-07
33.5128,2.27925e-07
33.5228,2.49435e-07
33.5328,2.72895e-07
33.5428,2.98474e-07
33.5528,3.26355e-07
33.5628,3.56736e-07
33.5728,3.89832e-07
33.5828,4.25873e-07
33.5928,4.6511e-07
33.6028,5.07814e-07
33.6128,5.54277e-07
33.6228,6.04813e-07
33.6328,6.59764e-07
33.6428,7.19498e-07
33.6528,7.84409e-07
33.6628,8.54927e-07
33.6728,9.31512e-07
33.6828,1.01466e-06
33.6928,1.10491e-06
33.7028,1.20283e-06
33.7128,1.30905e-06
33.7228,1.42423e-06
33.7328,1.54909e-06
33.7428,1.6844e-06
33.7528,1.831e-06
33.7628,1.98977e-06
33.7728,2.16168e-06
33.7828,2.34776e-06
33.7928,2.54911e-06
33.8028,2.76691e-06
33.8128,3.00245e-06
33.8228,3.25709e-06
33.8328,3.53228e-06
33.8428,3.82961e-06
33.8528,4.15075e-06
33.8628,4.4975e-06
33.8728,4.8718e-06
33.8828,5.2757e-06
33.8928,5.71141e-06
33.9028,6.18131e-06
33.9128,6.6879e-06
33.9228,7.2339e-06
33.9328,7.82218e-06
33.9428,8.45583e-06
33.9528,9.13813e-06
33.9628,9.8726e-06
33.9728,1.0663e-05
33.9828,1.15133e-05
33.9928,1.24277e-05
34.0028,1.34109e-05
34.0128,1.44676e-05
34.0228,1.5603e-05
34.0328,1.68226e-05
34.0428,1.81322e-05
34.0528,1.95381e-05
34.0628,2.10467e-05
34.0728,2.26653e-05
34.0828,2.44012e-05
34.0928,2.62623e-05
34.1028,2.82571e-05
34.1128,3.03946e-05
34.1228,3.26842e-05
34.1328,3.51359e-05
34.1428,3.77605e-05
34.1528,4.05694e-05
34.1628,4.35743e-05
34.1728,4.67882e-05
34.1828,5.02245e-05
34.1928,5.38973e-05
34.2028,5.78218e-05
34.2128,6.20139e-05
34.2228,6.64904e-05
34.2328,7.12693e-05
34.2428,7.63693e-05
34.2528,8.18102e-05
34.2628,8.76132e-05
34.2728,9.38004e-05
34.2828,0.000100395
34.2928,0.000107422
34.3028,0.000114907
34.3128,0.000122878
34.3228,0.000131363
34.3328,0.000140393
34.3428,0.00015
34.3528,0.000160218
34.3628,0.000171081
34.3728,0.000182627
34.3828,0.000194896
34.3928,0.000207928
34.4028,0.000221767
34.4128,0.000236457
34.4228,0.000252047
34.4328,0.000268586
34.4428,0.000286126
34.4528,0.000304723
34.4628,0.000324434
34.4728,0.000345318
34.4828,0.00036744
34.4928,0.000390864
34.5028,0.00041566
34.5128,0.000441899
34.5228,0.000469658
34.5328,0.000499014
34.5428,0.00053005
34.5528,0.000562851
34.5628,0.000597508
34.5728,0.000634113
34.5828,0.000672763
34.5928,0.000713561
34.6028,0.000756611
34.6128,0.000802024
34.6228,0.000849913
34.6328,0.000900399
34.6428,0.000953605
34.6528,0.00100966
34.6628,0.0010687
34.6728,0.00113085
34.6828,0.00119628
34.6928,0.00126511
34.7028,0.00133752
34.7128,0.00141366
34.7228,0.00149369
34.7328,0.00157779
34.7428,0.00166615
34.7528,0.00175893
34.7628,0.00185634
34.7728,0.00195857
34.7828,0.00206582
34.7928,0.00217831
34.8028,0.00229626
34.8128,0.00241988
34.8228,0.00254941
34.8328,0.00268509
34.8428,0.00282716
34.8528,0.00297588
34.8628,0.0031315
34.8728,0.0032943
34.8828,0.00346455
34.8928,0.00364254
34.9028,0.00382854
34.9128,0.00402287
34.9228,0.00422582
34.9328,0.00443772
34.9428,0.00465887
34.9528,0.00488962
34.9628,0.00513029
34.9728,0.00538123
34.9828,0.0056428
34.9928,0.00591535
35.0028,0.00619925
35.0128,0.00649488
35.0228,0.00680261
35.0328,0.00712284
35.0428,0.00745596
35.0528,0.00780238
35.0628,0.00816251
35.0728,0.00853676
35.0828,0.00892555
35.0928,0.00932932
35.1028,0.00974851
35.1128,0.0101836
35.1228,0.0106349
35.1328,0.011103
35.1428,0.0115883
35.1528,0.0120913
35.1628,0.0126124
35.1728,0.0131521
35.1828,0.013711
35.1928,0.0142894
35.2028,0.0148878
35.2128,0.0155067
35.2228,0.0161467
35.2328,0.0168081
35.2428,0.0174916
35.2528,0.0181975
35.2628,0.0189263
35.2728,0.0196786
35.2828,0.0204547
35.2928,0.0212553
35.3028,0.0220808
35.3128,0.0229316
35.3228,0.0238082
35.3328,0.0247111
35.3428,0.0256407
35.3528,0.0265975
35.3628,0.027582
35.3728,0.0285945
35.3828,0.0296355
35.3928,0.0307055
35.4028,0.0318047
35.4128,0.0329337
35.4228,0.0340928
35.4328,0.0352823
35.4428,0.0365027
35.4528,0.0377542
35.4628,0.0390372
35.4728,0.040352
35.4828,0.0416989
35.4928,0.0430781
35.5028,0.04449
35.5128,0.0459346
35.5228,0.0474123
35.5328,0.0489232
35.5428,0.0504675
35.5528,0.0520454
35.5628,0.0536568
35.5728,0.055302
35.5828,0.0569809
35.5928,0.0586936
35.6028,0.0604401
35.6128,0.0622204
35.6228,0.0640343
35.6328,0.0658819
35.6428,0.067763
35.6528,0.0696773
35.6628,0.0716248
35.6728,0.0736052
35.6828,0.0756182
35.6928,0.0776636
35.7028,0.0797409
35.7128,0.0818498
35.7228,0.08399
35.7328,0.0861609
35.7428,0.088362
35.7528,0.0905928
35.7628,0.0928528
35.7728,0.0951414
35.7828,0.0974578
35.7928,0.0998014
35.8028,0.102172
35.8128,0.104567
35.8228,0.106988
35.8328,0.109433
35.8428,0.1119
35.8528,0.11439
35.8628,0.116901
35.8728,0.119433
35.8828,0.121983
35.8928,0.124552
35.9028,0.127137
35.9128,0.129738
35.9228,0.132353
35.9328,0.134982
35.9428,0.137623
35.9528,0.140274
35.9628,0.142935
35.9728,0.145603
35.9828,0.148278
35.9928,0.150957
36.0028,0.153641
36.0128,0.156326
36.0228,0.159011
36.0328,0.161696
36.0428,0.164377
36.0528,0.167054
36.0628,0.169726
36.0728,0.172389
36.0828,0.175043
36.0928,0.177686
36.1028,0.180316
36.1128,0.182931
36.1228,0.18553
36.1328,0.188111
36.1428,0.190672
36.1528,0.193211
36.1628,0.195727
36.1728,0.198217
36.1828,0.200681
36.1928,0.203116
36.2028,0.20552
36.2128,0.207891
36.2228,0.210229
36.2328,0.212531
36.2428,0.214795
36.2528,0.217019
36.2628,0.219203
36.2728,0.221344
36.2828,0.22344
36.2928,0.22549
36.3028,0.227492
36.3128,0.229445
36.3228,0.231347
36.3328,0.233197
36.3428,0.234992
36.3528,0.236732
36.3628,0.238416
36.3728,0.240041
36.3828,0.241606
36.3928,0.24311
36.4028,0.244553
36.4128,0.245931
36.4228,0.247246
36.4328,0.248494
36.4428,0.249676
36.4528,0.25079
36.4628,0.251835
36.4728,0.252811
36.4828,0.253716
36.4928,0.25455
36.5028,0.255312
36.5128,0.256001
36.5228,0.256617
36.5328,0.25716
36.5428,0.257628
36.5528,0.258021
36.5628,0.25834
36.5728,0.258583
36.5828,0.25875
36.5928,0.258842
36.6028,0.258858
36.6128,0.258784
36.6228,0.258616
36.6328,0.258354
36.6428,0.257998
36.6528,0.257549
36.6628,0.257007
36.6728,0.256373
36.6828,0.255647
36.6928,0.25483
36.7028,0.253924
36.7128,0.252929
36.7228,0.251846
36.7328,0.250676
36.7428,0.249421
36.7528,0.248082
36.7628,0.24666
36.7728,0.245157
36.7828,0.243575
36.7928,0.241914
36.8028,0.240178
36.8128,0.238367
36.8228,0.236483
36.8328,0.23453
36.8428,0.232507
36.8528,0.230418
36.8628,0.228265
36.8728,0.226049
36.8828,0.223774
36.8928,0.221441
36.9028,0.219052
36.9128,0.21661
36.9228,0.214118
36.9328,0.211577
36.9428,0.20899
36.9528,0.20636
36.9628,0.203688
36.9728,0.200978
36.9828,0.198232
36.9928,0.195452
37.0028,0.192641
37.0128,0.189801
37.0228,0.186935
37.0328,0.184045
37.0428,0.181134
37.0528,0.178205
37.0628,0.175258
37.0728,0.172298
37.0828,0.169326
37.0928,0.166345
37.1028,0.163356
37.1128,0.160363
37.1228,0.157368
37.1328,0.154372
37.1428,0.151378
37.1528,0.148388
37.1628,0.145404
37.1728,0.142429
37.1828,0.139463
37.1928,0.13651
37.2028,0.13357
37.2128,0.130646
37.2228,0.12774
37.2328,0.124852
37.2428,0.121986
37.2528,0.119142
37.2628,0.116322
37.2728,0.113527
37.2828,0.11076
37.2928,0.10802
37.3028,0.10531
37.3128,0.10263
37.3228,0.0999821
37.3328,0.0973671
37.3428,0.094786
37.3528,0.0922396
37.3628,0.0897291
37.3728,0.087255
37.3828,0.0848183
37.3928,0.0824196
37.4028,0.0800596
37.4128,0.0777389
37.4228,0.075458
37.4328,0.0732173
37.4428,0.0710173
37.4528,0.0688583
37.4628,0.0667406
37.4728,0.0646645
37.4828,0.0626302
37.4928,0.0606378
37.5028,0.0586875
37.5128,0.0567791
37.5228,0.0549128
37.5328,0.0530886
37.5428,0.0513062
37.5528,0.0495657
37.5628,0.0478667
37.5728,0.0462092
37.5828,0.0445928
37.5928,0.0430173
37.6028,0.0414823
37.6128,0.0399876
37.6228,0.0385327
37.6328,0.0371172
37.6428,0.0357406
37.6528,0.0344026
37.6628,0.0331027
37.6728,0.0318402
37.6828,0.0306148
37.6928,0.0294258
37.7028,0.0282727
37.7128,0.0271549
37.7228,0.0260717
37.7328,0.0250227
37.7428,0.0240071
37.7528,0.0230244
37.7628,0.0220739
37.7728,0.0211549
37.7828,0.0202667
37.7928,0.0194088
37.8028,0.0185805
37.8128,0.017781
37.8228,0.0170097
37.8328,0.016266
37.8428,0.0155491
37.8528,0.0148584
37.8628,0.0141932
37.8728,0.0135529
37.8828,0.0129367
37.8928,0.012344
37.9028,0.0117742
37.9128,0.0112267
37.9228,0.0107007
37.9328,0.0101956
37.9428,0.00971081
37.9528,0.00924572
37.9628,0.0087997
37.9728,0.00837215
37.9828,0.00796247
37.9928,0.00757008
38.0028,0.00719441
38.0128,0.00683489
38.0228,0.00649098
38.0328,0.00616212
38.0428,0.0058478
38.0528,0.00554749
38.0628,0.00526068
38.0728,0.00498689
38.0828,0.00472562
38.0928,0.00447642
38.1028,0.00423881
38.1128,0.00401235
38.1228,0.00379661
38.1328,0.00359116
38.1428,0.00339559
38.1528,0.0032095
38.1628,0.00303251
38.1728,0.00286423
38.1828,0.00270431
38.1928,0.00255239
38.2028,0.00240812
38.2128,0.00227118
38.2228,0.00214125
38.2328,0.00201802
38.2428,0.00190118
38.2528,0.00179046
38.2628,0.00168558
38.2728,0.00158626
38.2828,0.00149224
38.2928,0.00140329
38.3028,0.00131916
38.3128,0.00123963
38.3228,0.00116446
38.3328,0.00109346
38.3428,0.00102641
38.3528,0.000963117
38.3628,0.000903401
38.3728,0.00084708
38.3828,0.00079398
38.3928,0.000743938
38.4028,0.000696796
38.4128,0.000652404
38.4228,0.000610618
38.4328,0.0005713
38.4428,0.000534319
38.4528,0.00049955
38.4628,0.000466874
38.4728,0.000436176
38.4828,0.000407348
38.4928,0.000380287
38.5028,0.000354894
38.5128,0.000331076
38.5228,0.000308745
38.5328,0.000287815
38.5428,0.000268206
38.5528,0.000249842
38.5628,0.00023265
38.5728,0.000216563
38.5828,0.000201515
38.5928,0.000187444
38.6028,0.000174292
38.6128,0.000162004
38.6228,0.000150528
38.6328,0.000139813
38.6428,0.000129814
38.6528,0.000120486
38.6628,0.000111788
38.6728,0.00010368
38.6828,9.61247e-05
38.6928,8.90878e-05
38.7028,8.25359e-05
38.7128,7.64381e-05
38.7228,7.0765e-05
38.7328,6.54891e-05
38.7428,6.05845e-05
38.7528,5.60268e-05
38.7628,5.17931e-05
38.7728,4.78618e-05
38.7828,4.42129e-05
38.7928,4.08273e-05
38.8028,3.76872e-05
38.8128,3.4776e-05
38.8228,3.2078e-05
38.8328,2.95785e-05
38.8428,2.72638e-05
38.8528,2.51212e-05
38.8628,2.31385e-05
38.8728,2.13045e-05
38.8828,1.96087e-05
38.8928,1.80414e-05
38.9028,1.65933e-05
38.9128,1.52558e-05
38.9228,1.40211e-05
38.9328,1.28816e-05
38.9428,1.18304e-05
38.9528,1.0861e-05
38.9628,9.96744e-06
38.9728,9.14406e-06
38.9828,8.38563e-06
38.9928,7.68732e-06
39.0028,7.04459e-06
39.0128,6.45324e-06
39.0228,5.90939e-06
39.0328,5.4094e-06
39.0428,4.94991e-06
39.0528,4.5278e-06
39.0628,4.14018e-06
39.0728,3.78436e-06
39.0828,3.45787e-06
39.0928,3.15839e-06
39.1028,2.8838e-06
39.1128,2.63212e-06
39.1228,2.40154e-06
39.1328,2.19035e-06
39.1428,1.99701e-06
39.1528,1.82008e-06
39.1628,1.65821e-06
39.1728,1.51019e-06
39.1828,1.37489e-06
39.1928,1.25125e-06
39.2028,1.13831e-06
39.2128,1.03519e-06
39.2228,9.41071e-07
39.2328,8.55197e-07
39.2428,7.76876e-07
39.2528,7.0547e-07
39.2628,6.40395e-07
39.2728,5.81111e-07
39.2828,5.27123e-07
39.2928,4.77976e-07
39.3028,4.33255e-07
39.3128,3.92574e-07
39.3228,3.55584e-07
39.3328,3.21962e-07
39.3428,2.91412e-07
39.3528,2.63666e-07
39.3628,2.38474e-07
39.3728,2.15611e-07
39.3828,1.94869e-07
39.3928,1.76058e-07
39.4028,1.59005e-07
39.4128,1.43552e-07
39.4228,1.29553e-07
39.4328,1.16877e-07
39.4428,1.05402e-07
39.4528,9.502e-08
39.4628,8.56291e-08
39.4728,7.71382e-08
39.4828,6.9464e-08
39.4928,6.25305e-08
39.5028,5.62685e-08
39.5128,5.06152e-08
39.5228,4.55133e-08
39.5328,4.09108e-08
39.5428,3.67603e-08
39.5528,3.30189e-08
39.5628,2.96475e-08
39.5728,2.66106e-08
39.5828,2.38761e-08
39.5928,2.14148e-08
39.6028,1.92002e-08
39.6128,1.72084e-08
39.6228,1.54176e-08
39.6328,1.38081e-08
39.6428,1.23622e-08
39.6528,1.10636e-08
39.6628,9.89782e-09
39.6728,8.85166e-09
39.6828,7.9132e-09
39.6928,7.07166e-09
39.7028,6.31731e-09
39.7128,5.64138e-09
39.7228,5.03593e-09
39.7328,4.49383e-09
39.7428,4.00862e-09
39.7528,3.5745e-09
39.7628,3.18623e-09
39.7728,2.83911e-09
39.7828,2.52888e-09
39.7928,2.25173e-09
39.8028,2.00422e-09
39.8128,1.78327e-09
39.8228,1.5861e-09
39.8328,1.41021e-09
39.8428,1.25338e-09
39.8528,1.11358e-09
39.8628,9.89013e-10
39.8728,8.78061e-10
39.8828,7.79272e-10
39.8928,6.91346e-10
39.9028,6.13118e-10
39.9128,5.43543e-10
39.9228,4.81688e-10
39.9328,4.26717e-10
39.9428,3.77881e-10
39.9528,3.34513e-10
39.9628,2.96014e-10
39.9728,2.61851e-10
39.9828,2.31546e-10
39.9928,2.04674e-10
40.0028,1.80854e-10
40.0128,1.59749e-10
40.0228,1.41055e-10
40.0328,1.24503e-10
40.0428,1.09854e-10
40.0528,9.68927e-11
40.0628,8.54298e-11
40.0728,7.52955e-11
40.0828,6.63393e-11
40.0928,5.84271e-11
40.1028,5.14399e-11
40.1128,4.52718e-11
40.1228,3.98287e-11
40.1328,3.50274e-11
40.1428,3.07936e-11
40.1528,2.70617e-11
40.1628,2.37734e-11
40.1728,2.08771e-11
40.1828,1.8327e-11
40.1928,1.60825e-11
40.2028,1.41077e-11
40.2128,1.2371e-11
40.2228,1.0844e-11
40.2328,9.50212e-12
40.2428,8.32323e-12
40.2528,7.28795e-12
40.2628,6.37912e-12
40.2728,5.58159e-12
40.2828,4.88199e-12
40.2928,4.26852e-12
40.3028,3.73079e-12
40.3128,3.25961e-12
40.3228,2.8469e-12