File: li_2014/200_xrd/curve_total_fit.dat
30.7028,1.21058
30.7128,1.21072
30.7228,1.21086
30.7328,1.211
30.7428,1.21115
30.7528,1.2113
30.7628,1.21145
30.7728,1.2116
30.7828,1.21176
30.7928,1.21192
30.8028,1.21208
30.8128,1.21225
30.8228,1.21242
30.8328,1.21259
30.8428,1.21277
30.8528,1.21295
30.8628,1.21313
30.8728,1.21332
30.8828,1.21351
30.8928,1.21371
30.9028,1.21391
30.9128,1.21411
30.9228,1.21432
30.9328,1.21453
30.9428,1.21474
30.9528,1.21496
30.9628,1.21519
30.9728,1.21542
30.9828,1.21565
30.9928,1.21589
31.0028,1.21614
31.0128,1.21639
31.0228,1.21664
31.0328,1.2169
31.0428,1.21717
31.0528,1.21744
31.0628,1.21772
31.0728,1.218
31.0828,1.21829
31.0928,1.21859
31.1028,1.21889
31.1128,1.2192
31.1228,1.21952
31.1328,1.21985
31.1428,1.22018
31.1528,1.22052
31.1628,1.22087
31.1728,1.22122
31.1828,1.22159
31.1928,1.22196
31.2028,1.22234
31.2128,1.22273
31.2228,1.22313
31.2328,1.22354
31.2428,1.22396
31.2528,1.22439
31.2628,1.22483
31.2728,1.22529
31.2828,1.22575
31.2928,1.22623
31.3028,1.22671
31.3128,1.22721
31.3228,1.22773
31.3328,1.22825
31.3428,1.22879
31.3528,1.22935
31.3628,1.22992
31.3728,1.2305
31.3828,1.2311
31.3928,1.23172
31.4028,1.23235
31.4128,1.233
31.4228,1.23367
31.4328,1.23436
31.4428,1.23507
31.4528,1.2358
31.4628,1.23655
31.4728,1.23732
31.4828,1.23811
31.4928,1.23893
31.5028,1.23978
31.5128,1.24065
31.5228,1.24154
31.5328,1.24247
31.5428,1.24342
31.5528,1.2444
31.5628,1.24542
31.5728,1.24647
31.5828,1.24755
31.5928,1.24867
31.6028,1.24983
31.6128,1.25102
31.6228,1.25226
31.6328,1.25354
31.6428,1.25486
31.6528,1.25624
31.6628,1.25766
31.6728,1.25913
31.6828,1.26066
31.6928,1.26225
31.7028,1.2639
31.7128,1.26561
31.7228,1.26739
31.7328,1.26924
31.7428,1.27116
31.7528,1.27316
31.7628,1.27525
31.7728,1.27742
31.7828,1.27968
31.7928,1.28205
31.8028,1.28451
31.8128,1.28709
31.8228,1.28978
31.8328,1.2926
31.8428,1.29555
31.8528,1.29864
31.8628,1.30187
31.8728,1.30527
31.8828,1.30883
31.8928,1.31258
31.9028,1.31652
31.9128,1.32066
31.9228,1.32503
31.9328,1.32963
31.9428,1.33449
31.9528,1.33961
31.9628,1.34503
31.9728,1.35077
31.9828,1.35684
31.9928,1.36328
32.0028,1.37012
32.0128,1.37738
32.0228,1.3851
32.0328,1.39332
32.0428,1.40207
32.0528,1.41142
32.0628,1.42139
32.0728,1.43206
32.0828,1.44347
32.0928,1.4557
32.1028,1.46882
32.1128,1.48289
32.1228,1.49802
32.1328,1.51428
32.1428,1.53179
32.1528,1.55064
32.1628,1.57095
32.1728,1.59285
32.1828,1.61646
32.1928,1.6419
32.2028,1.66932
32.2128,1.69885
32.2228,1.73059
32.2328,1.76467
32.2428,1.80115
32.2528,1.84007
32.2628,1.88141
32.2728,1.92507
32.2828,1.97085
32.2928,2.01843
32.3028,2.0673
32.3128,2.11681
32.3228,2.16608
32.3328,2.21405
32.3428,2.25946
32.3528,2.30092
32.3628,2.33698
32.3728,2.36621
32.3828,2.38736
32.3928,2.39948
32.4028,2.40198
32.4128,2.39478
32.4228,2.37824
32.4328,2.35316
32.4428,2.3207
32.4528,2.2822
32.4628,2.23913
32.4728,2.19292
32.4828,2.14489
32.4928,2.09618
32.5028,2.04776
32.5128,2.00038
32.5228,1.9546
32.5328,1.91081
32.5428,1.86928
32.5528,1.83013
32.5628,1.79342
32.5728,1.75914
32.5828,1.72722
32.5928,1.69758
32.6028,1.67009
32.6128,1.64463
32.6228,1.62107
32.6328,1.59927
32.6428,1.57911
32.6528,1.56047
32.6628,1.54322
32.6728,1.52725
32.6828,1.51247
32.6928,1.49877
32.7028,1.48608
32.7128,1.4743
32.7228,1.46336
32.7328,1.4532
32.7428,1.44376
32.7528,1.43497
32.7628,1.42678
32.7728,1.41916
32.7828,1.41205
32.7928,1.40542
32.8028,1.39923
32.8128,1.39344
32.8228,1.38803
32.8328,1.38297
32.8428,1.37824
32.8528,1.37381
32.8628,1.36966
32.8728,1.36577
32.8828,1.36212
32.8928,1.3587
32.9028,1.35549
32.9128,1.35249
32.9228,1.34966
32.9328,1.34701
32.9428,1.34452
32.9528,1.34219
32.9628,1.34
32.9728,1.33794
32.9828,1.33601
32.9928,1.3342
33.0028,1.3325
33.0128,1.33091
33.0228,1.32941
33.0328,1.32802
33.0428,1.32671
33.0528,1.32548
33.0628,1.32433
33.0728,1.32326
33.0828,1.32226
33.0928,1.32133
33.1028,1.32046
33.1128,1.31965
33.1228,1.3189
33.1328,1.31821
33.1428,1.31757
33.1528,1.31697
33.1628,1.31643
33.1728,1.31593
33.1828,1.31547
33.1928,1.31505
33.2028,1.31467
33.2128,1.31433
33.2228,1.31402
33.2328,1.31375
33.2428,1.31351
33.2528,1.3133
33.2628,1.31311
33.2728,1.31296
33.2828,1.31283
33.2928,1.31273
33.3028,1.31265
33.3128,1.3126
33.3228,1.31256
33.3328,1.31255
33.3428,1.31256
33.3528,1.31259
33.3628,1.31263
33.3728,1.3127
33.3828,1.31278
33.3928,1.31287
33.4028,1.31298
33.4128,1.31311
33.4228,1.31325
33.4328,1.3134
33.4428,1.31357
33.4528,1.31374
33.4628,1.31393
33.4728,1.31413
33.4828,1.31434
33.4928,1.31456
33.5028,1.31479
33.5128,1.31503
33.5228,1.31527
33.5328,1.31553
33.5428,1.31579
33.5528,1.31605
33.5628,1.31633
33.5728,1.31661
33.5828,1.31689
33.5928,1.31719
33.6028,1.31748
33.6128,1.31778
33.6228,1.31809
33.6328,1.3184
33.6428,1.31871
33.6528,1.31903
33.6628,1.31935
33.6728,1.31967
33.6828,1.31999
33.6928,1.32032
33.7028,1.32065
33.7128,1.32098
33.7228,1.32131
33.7328,1.32164
33.7428,1.32198
33.7528,1.32231
33.7628,1.32264
33.7728,1.32298
33.7828,1.32331
33.7928,1.32364
33.8028,1.32398
33.8128,1.32431
33.8228,1.32464
33.8328,1.32497
33.8428,1.3253
33.8528,1.32562
33.8628,1.32595
33.8728,1.32627
33.8828,1.32659
33.8928,1.32691
33.9028,1.32723
33.9128,1.32754
33.9228,1.32785
33.9328,1.32815
33.9428,1.32846
33.9528,1.32876
33.9628,1.32905
33.9728,1.32935
33.9828,1.32964
33.9928,1.32992
34.0028,1.3302
34.0128,1.33048
34.0228,1.33075
34.0328,1.33102
34.0428,1.33128
34.0528,1.33154
34.0628,1.33179
34.0728,1.33204
34.0828,1.33228
34.0928,1.33252
34.1028,1.33275
34.1128,1.33297
34.1228,1.3332
34.1328,1.33341
34.1428,1.33362
34.1528,1.33382
34.1628,1.33402
34.1728,1.33421
34.1828,1.3344
34.1928,1.33458
34.2028,1.33475
34.2128,1.33491
34.2228,1.33507
34.2328,1.33523
34.2428,1.33537
34.2528,1.33551
34.2628,1.33565
34.2728,1.33577
34.2828,1.33589
34.2928,1.33601
34.3028,1.33611
34.3128,1.33621
34.3228,1.3363
34.3328,1.33639
34.3428,1.33647
34.3528,1.33654
34.3628,1.3366
34.3728,1.33666
34.3828,1.33671
34.3928,1.33675
34.4028,1.33679
34.4128,1.33682
34.4228,1.33684
34.4328,1.33685
34.4428,1.33686
34.4528,1.33686
34.4628,1.33685
34.4728,1.33684
34.4828,1.33682
34.4928,1.33679
34.5028,1.33676
34.5128,1.33672
34.5228,1.33667
34.5328,1.33662
34.5428,1.33655
34.5528,1.33648
34.5628,1.3364
34.5728,1.33632
34.5828,1.33623
34.5928,1.33613
34.6028,1.33603
34.6128,1.33592
34.6228,1.3358
34.6328,1.33568
34.6428,1.33555
34.6528,1.33541
34.6628,1.33527
34.6728,1.33512
34.6828,1.33497
34.6928,1.33481
34.7028,1.33465
34.7128,1.33448
34.7228,1.33431
34.7328,1.33413
34.7428,1.33395
34.7528,1.33376
34.7628,1.33357
34.7728,1.33338
34.7828,1.33318
34.7928,1.33298
34.8028,1.33278
34.8128,1.33257
34.8228,1.33236
34.8328,1.33215
34.8428,1.33194
34.8528,1.33173
34.8628,1.33151
34.8728,1.3313
34.8828,1.33109
34.8928,1.33087
34.9028,1.33066
34.9128,1.33044
34.9228,1.33023
34.9328,1.33002
34.9428,1.32981
34.9528,1.3296
34.9628,1.3294
34.9728,1.32919
34.9828,1.329
34.9928,1.3288
35.0028,1.32861
35.0128,1.32843
35.0228,1.32825
35.0328,1.32808
35.0428,1.32791
35.0528,1.32775
35.0628,1.3276
35.0728,1.32745
35.0828,1.32731
35.0928,1.32719
35.1028,1.32707
35.1128,1.32696
35.1228,1.32686
35.1328,1.32678
35.1428,1.3267
35.1528,1.32664
35.1628,1.32659
35.1728,1.32655
35.1828,1.32653
35.1928,1.32652
35.2028,1.32653
35.2128,1.32655
35.2228,1.32659
35.2328,1.32665
35.2428,1.32672
35.2528,1.32681
35.2628,1.32692
35.2728,1.32705
35.2828,1.3272
35.2928,1.32737
35.3028,1.32756
35.3128,1.32777
35.3228,1.32801
35.3328,1.32827
35.3428,1.32855
35.3528,1.32885
35.3628,1.32918
35.3728,1.32953
35.3828,1.32991
35.3928,1.33032
35.4028,1.33075
35.4128,1.33121
35.4228,1.3317
35.4328,1.33221
35.4428,1.33276
35.4528,1.33333
35.4628,1.33393
35.4728,1.33457
35.4828,1.33523
35.4928,1.33592
35.5028,1.33664
35.5128,1.3374
35.5228,1.33819
35.5328,1.33901
35.5428,1.33986
35.5528,1.34074
35.5628,1.34166
35.5728,1.34261
35.5828,1.34359
35.5928,1.34461
35.6028,1.34566
35.6128,1.34674
35.6228,1.34785
35.6328,1.349
35.6428,1.35019
35.6528,1.3514
35.6628,1.35265
35.6728,1.35393
35.6828,1.35525
35.6928,1.3566
35.7028,1.35798
35.7128,1.35939
35.7228,1.36083
35.7328,1.36231
35.7428,1.36382
35.7528,1.36536
35.7628,1.36692
35.7728,1.36852
35.7828,1.37015
35.7928,1.3718
35.8028,1.37349
35.8128,1.3752
35.8228,1.37694
35.8328,1.3787
35.8428,1.38049
35.8528,1.3823
35.8628,1.38413
35.8728,1.38599
35.8828,1.38787
35.8928,1.38977
35.9028,1.39168
35.9128,1.39362
35.9228,1.39557
35.9328,1.39754
35.9428,1.39952
35.9528,1.40152
35.9628,1.40353
35.9728,1.40554
35.9828,1.40757
35.9928,1.40961
36.0028,1.41165
36.0128,1.4137
36.0228,1.41575
36.0328,1.4178
36.0428,1.41985
36.0528,1.4219
36.0628,1.42395
36.0728,1.42599
36.0828,1.42803
36.0928,1.43006
36.1028,1.43208
36.1128,1.43409
36.1228,1.43609
36.1328,1.43807
36.1428,1.44004
36.1528,1.44199
36.1628,1.44392
36.1728,1.44582
36.1828,1.44771
36.1928,1.44956
36.2028,1.4514
36.2128,1.4532
36.2228,1.45497
36.2328,1.45672
36.2428,1.45842
36.2528,1.4601
36.2628,1.46173
36.2728,1.46333
36.2828,1.46489
36.2928,1.4664
36.3028,1.46787
36.3128,1.4693
36.3228,1.47068
36.3328,1.47201
36.3428,1.47329
36.3528,1.47452
36.3628,1.4757
36.3728,1.47682
36.3828,1.47789
36.3928,1.4789
36.4028,1.47985
36.4128,1.48075
36.4228,1.48158
36.4328,1.48235
36.4428,1.48306
36.4528,1.48371
36.4628,1.48429
36.4728,1.48481
36.4828,1.48526
36.4928,1.48565
36.5028,1.48597
36.5128,1.48622
36.5228,1.4864
36.5328,1.48651
36.5428,1.48655
36.5528,1.48652
36.5628,1.48642
36.5728,1.48625
36.5828,1.48601
36.5928,1.48569
36.6028,1.48531
36.6128,1.48484
36.6228,1.48428
36.6328,1.48363
36.6428,1.48289
36.6528,1.48206
36.6628,1.48114
36.6728,1.48014
36.6828,1.47904
36.6928,1.47787
36.7028,1.4766
36.7128,1.47525
36.7228,1.47382
36.7328,1.47231
36.7428,1.47071
36.7528,1.46903
36.7628,1.46728
36.7728,1.46545
36.7828,1.46354
36.7928,1.46156
36.8028,1.4595
36.8128,1.45738
36.8228,1.45519
36.8328,1.45293
36.8428,1.45061
36.8528,1.44822
36.8628,1.44578
36.8728,1.44327
36.8828,1.44071
36.8928,1.4381
36.9028,1.43543
36.9128,1.43271
36.9228,1.42995
36.9328,1.42714
36.9428,1.4243
36.9528,1.42141
36.9628,1.41848
36.9728,1.41552
36.9828,1.41252
36.9928,1.4095
37.0028,1.40645
37.0128,1.40337
37.0228,1.40027
37.0328,1.39715
37.0428,1.39401
37.0528,1.39086
37.0628,1.38769
37.0728,1.38451
37.0828,1.38132
37.0928,1.37813
37.1028,1.37494
37.1128,1.37174
37.1228,1.36854
37.1328,1.36535
37.1428,1.36216
37.1528,1.35898
37.1628,1.3558
37.1728,1.35264
37.1828,1.34949
37.1928,1.34636
37.2028,1.34324
37.2128,1.34014
37.2228,1.33706
37.2328,1.33401
37.2428,1.33098
37.2528,1.32797
37.2628,1.32499
37.2728,1.32204
37.2828,1.31911
37.2928,1.31622
37.3028,1.31336
37.3128,1.31053
37.3228,1.30774
37.3328,1.30498
37.3428,1.30226
37.3528,1.29957
37.3628,1.29693
37.3728,1.29432
37.3828,1.29175
37.3928,1.28923
37.4028,1.28674
37.4128,1.2843
37.4228,1.28189
37.4328,1.27953
37.4428,1.27722
37.4528,1.27494
37.4628,1.27271
37.4728,1.27052
37.4828,1.26838
37.4928,1.26628
37.5028,1.26422
37.5128,1.26221
37.5228,1.26024
37.5328,1.25832
37.5428,1.25644
37.5528,1.2546
37.5628,1.25281
37.5728,1.25106
37.5828,1.24935
37.5928,1.24769
37.6028,1.24607
37.6128,1.24449
37.6228,1.24295
37.6328,1.24145
37.6428,1.23999
37.6528,1.23858
37.6628,1.2372
37.6728,1.23586
37.6828,1.23456
37.6928,1.2333
37.7028,1.23207
37.7128,1.23089
37.7228,1.22973
37.7328,1.22862
37.7428,1.22754
37.7528,1.22649
37.7628,1.22547
37.7728,1.22449
37.7828,1.22354
37.7928,1.22263
37.8028,1.22174
37.8128,1.22088
37.8228,1.22006
37.8328,1.21926
37.8428,1.21849
37.8528,1.21774
37.8628,1.21703
37.8728,1.21634
37.8828,1.21567
37.8928,1.21503
37.9028,1.21441
37.9128,1.21382
37.9228,1.21325
37.9328,1.2127
37.9428,1.21217
37.9528,1.21166
37.9628,1.21117
37.9728,1.21071
37.9828,1.21026
37.9928,1.20982
38.0028,1.20941
38.0128,1.20901
38.0228,1.20863
38.0328,1.20827
38.0428,1.20792
38.0528,1.20759
38.0628,1.20726
38.0728,1.20696
38.0828,1.20667
38.0928,1.20638
38.1028,1.20612
38.1128,1.20586
38.1228,1.20561
38.1328,1.20538
38.1428,1.20516
38.1528,1.20494
38.1628,1.20474
38.1728,1.20455
38.1828,1.20436
38.1928,1.20418
38.2028,1.20401
38.2128,1.20385
38.2228,1.2037
38.2328,1.20355
38.2428,1.20341
38.2528,1.20328
38.2628,1.20316
38.2728,1.20304
38.2828,1.20292
38.2928,1.20281
38.3028,1.20271
38.3128,1.20261
38.3228,1.20252
38.3328,1.20243
38.3428,1.20234
38.3528,1.20226
38.3628,1.20219
38.3728,1.20211
38.3828,1.20204
38.3928,1.20198
38.4028,1.20191
38.4128,1.20185
38.4228,1.2018
38.4328,1.20174
38.4428,1.20169
38.4528,1.20164
38.4628,1.2016
38.4728,1.20155
38.4828,1.20151
38.4928,1.20147
38.5028,1.20144
38.5128,1.2014
38.5228,1.20137
38.5328,1.20133
38.5428,1.2013
38.5528,1.20127
38.5628,1.20125
38.5728,1.20122
38.5828,1.20119
38.5928,1.20117
38.6028,1.20115
38.6128,1.20112
38.6228,1.2011
38.6328,1.20108
38.6428,1.20106
38.6528,1.20105
38.6628,1.20103
38.6728,1.20101
38.6828,1.201
38.6928,1.20098
38.7028,1.20097
38.7128,1.20095
38.7228,1.20094
38.7328,1.20093
38.7428,1.20092
38.7528,1.2009
38.7628,1.20089
38.7728,1.20088
38.7828,1.20087
38.7928,1.20086
38.8028,1.20085
38.8128,1.20084
38.8228,1.20083
38.8328,1.20083
38.8428,1.20082
38.8528,1.20081
38.8628,1.2008
38.8728,1.2008
38.8828,1.20079
38.8928,1.20078
38.9028,1.20078
38.9128,1.20077
38.9228,1.20076
38.9328,1.20076
38.9428,1.20075
38.9528,1.20075
38.9628,1.20074
38.9728,1.20073
38.9828,1.20073
38.9928,1.20072
39.0028,1.20072
39.0128,1.20071
39.0228,1.20071
39.0328,1.20071
39.0428,1.2007
39.0528,1.2007
39.0628,1.20069
39.0728,1.20069
39.0828,1.20069
39.0928,1.20068
39.1028,1.20068
39.1128,1.20067
39.1228,1.20067
39.1328,1.20067
39.1428,1.20066
39.1528,1.20066
39.1628,1.20066
39.1728,1.20065
39.1828,1.20065
39.1928,1.20065
39.2028,1.20064
39.2128,1.20064
39.2228,1.20064
39.2328,1.20063
39.2428,1.20063
39.2528,1.20063
39.2628,1.20063
39.2728,1.20062
39.2828,1.20062
39.2928,1.20062
39.3028,1.20062
39.3128,1.20061
39.3228,1.20061
39.3328,1.20061
39.3428,1.20061
39.3528,1.2006
39.3628,1.2006
39.3728,1.2006
39.3828,1.2006
39.3928,1.20059
39.4028,1.20059
39.4128,1.20059
39.4228,1.20059
39.4328,1.20058
39.4428,1.20058
39.4528,1.20058
39.4628,1.20058
39.4728,1.20058
39.4828,1.20057
39.4928,1.20057
39.5028,1.20057
39.5128,1.20057
39.5228,1.20057
39.5328,1.20056
39.5428,1.20056
39.5528,1.20056
39.5628,1.20056
39.5728,1.20056
39.5828,1.20055
39.5928,1.20055
39.6028,1.20055
39.6128,1.20055
39.6228,1.20055
39.6328,1.20055
39.6428,1.20054
39.6528,1.20054
39.6628,1.20054
39.6728,1.20054
39.6828,1.20054
39.6928,1.20054
39.7028,1.20053
39.7128,1.20053
39.7228,1.20053
39.7328,1.20053
39.7428,1.20053
39.7528,1.20053
39.7628,1.20052
39.7728,1.20052
39.7828,1.20052
39.7928,1.20052
39.8028,1.20052
39.8128,1.20052
39.8228,1.20051
39.8328,1.20051
39.8428,1.20051
39.8528,1.20051
39.8628,1.20051
39.8728,1.20051
39.8828,1.20051
39.8928,1.2005
39.9028,1.2005
39.9128,1.2005
39.9228,1.2005
39.9328,1.2005
39.9428,1.2005
39.9528,1.2005
39.9628,1.20049
39.9728,1.20049
39.9828,1.20049
39.9928,1.20049
40.0028,1.20049
40.0128,1.20049
40.0228,1.20049
40.0328,1.20049
40.0428,1.20048
40.0528,1.20048
40.0628,1.20048
40.0728,1.20048
40.0828,1.20048
40.0928,1.20048
40.1028,1.20048
40.1128,1.20047
40.1228,1.20047
40.1328,1.20047
40.1428,1.20047
40.1528,1.20047
40.1628,1.20047
40.1728,1.20047
40.1828,1.20047
40.1928,1.20047
40.2028,1.20046
40.2128,1.20046
40.2228,1.20046
40.2328,1.20046
40.2428,1.20046
40.2528,1.20046
40.2628,1.20046
40.2728,1.20046
40.2828,1.20045
40.2928,1.20045
40.3028,1.20045
40.3128,1.20045
40.3228,1.20045