File: li_2014/200_xrd/curve_1_fit.dat
30.7028,0.00971265
30.7128,0.00982716
30.7228,0.0099437
30.7328,0.0100623
30.7428,0.0101831
30.7528,0.010306
30.7628,0.0104312
30.7728,0.0105586
30.7828,0.0106884
30.7928,0.0108206
30.8028,0.0109553
30.8128,0.0110924
30.8228,0.0112322
30.8328,0.0113746
30.8428,0.0115197
30.8528,0.0116676
30.8628,0.0118184
30.8728,0.0119721
30.8828,0.0121288
30.8928,0.0122886
30.9028,0.0124516
30.9128,0.0126178
30.9228,0.0127873
30.9328,0.0129603
30.9428,0.0131368
30.9528,0.0133169
30.9628,0.0135008
30.9728,0.0136884
30.9828,0.01388
30.9928,0.0140756
31.0028,0.0142753
31.0128,0.0144794
31.0228,0.0146878
31.0328,0.0149007
31.0428,0.0151182
31.0528,0.0153406
31.0628,0.0155678
31.0728,0.0158002
31.0828,0.0160377
31.0928,0.0162806
31.1028,0.016529
31.1128,0.0167832
31.1228,0.0170432
31.1328,0.0173093
31.1428,0.0175816
31.1528,0.0178604
31.1628,0.0181458
31.1728,0.0184381
31.1828,0.0187375
31.1928,0.0190441
31.2028,0.0193583
31.2128,0.0196804
31.2228,0.0200104
31.2328,0.0203488
31.2428,0.0206958
31.2528,0.0210517
31.2628,0.0214168
31.2728,0.0217914
31.2828,0.0221759
31.2928,0.0225706
31.3028,0.0229758
31.3128,0.023392
31.3228,0.0238195
31.3328,0.0242587
31.3428,0.0247101
31.3528,0.0251741
31.3628,0.0256513
31.3728,0.026142
31.3828,0.0266468
31.3928,0.0271663
31.4028,0.027701
31.4128,0.0282515
31.4228,0.0288184
31.4328,0.0294024
31.4428,0.0300042
31.4528,0.0306245
31.4628,0.0312641
31.4728,0.0319237
31.4828,0.0326042
31.4928,0.0333065
31.5028,0.0340315
31.5128,0.0347802
31.5228,0.0355536
31.5328,0.0363528
31.5428,0.0371789
31.5528,0.0380333
31.5628,0.038917
31.5728,0.0398316
31.5828,0.0407784
31.5928,0.0417589
31.6028,0.0427748
31.6128,0.0438277
31.6228,0.0449194
31.6328,0.0460519
31.6428,0.0472271
31.6528,0.0484473
31.6628,0.0497146
31.6728,0.0510315
31.6828,0.0524007
31.6928,0.0538248
31.7028,0.0553067
31.7128,0.0568496
31.7228,0.0584569
31.7328,0.0601321
31.7428,0.0618789
31.7528,0.0637015
31.7628,0.0656041
31.7728,0.0675915
31.7828,0.0696687
31.7928,0.071841
31.8028,0.0741141
31.8128,0.0764942
31.8228,0.0789881
31.8328,0.0816028
31.8428,0.084346
31.8528,0.0872262
31.8628,0.0902522
31.8728,0.0934337
31.8828,0.0967814
31.8928,0.100306
31.9028,0.104021
31.9128,0.107939
31.9228,0.112074
31.9328,0.116443
31.9428,0.121062
31.9528,0.12595
31.9628,0.131127
31.9728,0.136616
31.9828,0.14244
31.9928,0.148627
32.0028,0.155204
32.0128,0.162203
32.0228,0.169659
32.0328,0.17761
32.0428,0.186097
32.0528,0.195165
32.0628,0.204864
32.0728,0.215248
32.0828,0.226378
32.0928,0.238318
32.1028,0.251139
32.1128,0.26492
32.1228,0.279745
32.1328,0.295707
32.1428,0.312905
32.1528,0.331445
32.1628,0.351444
32.1728,0.373022
32.1828,0.396306
32.1928,0.421427
32.2028,0.448518
32.2128,0.477707
32.2228,0.509116
32.2328,0.542849
32.2428,0.578983
32.2528,0.617553
32.2628,0.658541
32.2728,0.701846
32.2828,0.747267
32.2928,0.794474
32.3028,0.842979
32.3128,0.892113
32.3228,0.941008
32.3328,0.988597
32.3428,1.03362
32.3528,1.0747
32.3628,1.11036
32.3728,1.13919
32.3828,1.15995
32.3928,1.17165
32.4028,1.17375
32.4128,1.16613
32.4228,1.14918
32.4328,1.12368
32.4428,1.09079
32.4528,1.05186
32.4628,1.00836
32.4728,0.961712
32.4828,0.913237
32.4928,0.864087
32.5028,0.815218
32.5128,0.767383
32.5228,0.721145
32.5328,0.676898
32.5428,0.634895
32.5528,0.595278
32.5628,0.558098
32.5728,0.52334
32.5828,0.490942
32.5928,0.460812
32.6028,0.432833
32.6128,0.406881
32.6228,0.382823
32.6328,0.360527
32.6428,0.339864
32.6528,0.32071
32.6628,0.302948
32.6728,0.286468
32.6828,0.271165
32.6928,0.256946
32.7028,0.243721
32.7128,0.231411
32.7228,0.219942
32.7328,0.209244
32.7428,0.199257
32.7528,0.189924
32.7628,0.181193
32.7728,0.173017
32.7828,0.165353
32.7928,0.158161
32.8028,0.151407
32.8128,0.145056
32.8228,0.139079
32.8328,0.133449
32.8428,0.128141
32.8528,0.123131
32.8628,0.118398
32.8728,0.113924
32.8828,0.109691
32.8928,0.105681
32.9028,0.101881
32.9128,0.0982755
32.9228,0.094853
32.9328,0.0916013
32.9428,0.0885097
32.9528,0.0855679
32.9628,0.0827668
32.9728,0.0800978
32.9828,0.0775528
32.9928,0.0751246
33.0028,0.0728062
33.0128,0.0705913
33.0228,0.0684739
33.0328,0.0664485
33.0428,0.06451
33.0528,0.0626535
33.0628,0.0608746
33.0728,0.0591691
33.0828,0.0575331
33.0928,0.0559629
33.1028,0.0544551
33.1128,0.0530065
33.1228,0.051614
33.1328,0.050275
33.1428,0.0489866
33.1528,0.0477464
33.1628,0.0465522
33.1728,0.0454015
33.1828,0.0442925
33.1928,0.0432231
33.2028,0.0421915
33.2128,0.041196
33.2228,0.0402349
33.2328,0.0393067
33.2428,0.0384098
33.2528,0.037543
33.2628,0.0367049
33.2728,0.0358942
33.2828,0.0351098
33.2928,0.0343507
33.3028,0.0336156
33.3128,0.0329037
33.3228,0.0322139
33.3328,0.0315454
33.3428,0.0308973
33.3528,0.0302688
33.3628,0.0296591
33.3728,0.0290676
33.3828,0.0284934
33.3928,0.0279359
33.4028,0.0273944
33.4128,0.0268685
33.4228,0.0263574
33.4328,0.0258607
33.4428,0.0253778
33.4528,0.0249082
33.4628,0.0244514
33.4728,0.024007
33.4828,0.0235745
33.4928,0.0231535
33.5028,0.0227436
33.5128,0.0223444
33.5228,0.0219556
33.5328,0.0215768
33.5428,0.0212076
33.5528,0.0208478
33.5628,0.020497
33.5728,0.020155
33.5828,0.0198214
33.5928,0.0194959
33.6028,0.0191784
33.6128,0.0188685
33.6228,0.018566
33.6328,0.0182707
33.6428,0.0179824
33.6528,0.0177008
33.6628,0.0174257
33.6728,0.0171569
33.6828,0.0168943
33.6928,0.0166377
33.7028,0.0163868
33.7128,0.0161415
33.7228,0.0159017
33.7328,0.0156672
33.7428,0.0154377
33.7528,0.0152133
33.7628,0.0149937
33.7728,0.0147788
33.7828,0.0145685
33.7928,0.0143626
33.8028,0.014161
33.8128,0.0139636
33.8228,0.0137704
33.8328,0.013581
33.8428,0.0133956
33.8528,0.0132139
33.8628,0.0130358
33.8728,0.0128613
33.8828,0.0126903
33.8928,0.0125227
33.9028,0.0123583
33.9128,0.0121972
33.9228,0.0120392
33.9328,0.0118842
33.9428,0.0117322
33.9528,0.011583
33.9628,0.0114367
33.9728,0.0112931
33.9828,0.0111523
33.9928,0.011014
34.0028,0.0108782
34.0128,0.010745
34.0228,0.0106142
34.0328,0.0104857
34.0428,0.0103596
34.0528,0.0102357
34.0628,0.010114
34.0728,0.00999448
34.0828,0.00987705
34.0928,0.00976167
34.1028,0.00964829
34.1128,0.00953688
34.1228,0.00942737
34.1328,0.00931974
34.1428,0.00921394
34.1528,0.00910992
34.1628,0.00900765
34.1728,0.00890708
34.1828,0.00880819
34.1928,0.00871093
34.2028,0.00861527
34.2128,0.00852118
34.2228,0.00842861
34.2328,0.00833754
34.2428,0.00824793
34.2528,0.00815976
34.2628,0.00807299
34.2728,0.0079876
34.2828,0.00790355
34.2928,0.00782081
34.3028,0.00773937
34.3128,0.00765918
34.3228,0.00758024
34.3328,0.00750251
34.3428,0.00742596
34.3528,0.00735058
34.3628,0.00727633
34.3728,0.00720321
34.3828,0.00713118
34.3928,0.00706022
34.4028,0.00699031
34.4128,0.00692143
34.4228,0.00685357
34.4328,0.0067867
34.4428,0.00672079
34.4528,0.00665585
34.4628,0.00659183
34.4728,0.00652874
34.4828,0.00646654
34.4928,0.00640523
34.5028,0.00634478
34.5128,0.00628519
34.5228,0.00622643
34.5328,0.00616848
34.5428,0.00611134
34.5528,0.00605499
34.5628,0.00599942
34.5728,0.0059446
34.5828,0.00589053
34.5928,0.0058372
34.6028,0.00578458
34.6128,0.00573267
34.6228,0.00568146
34.6328,0.00563092
34.6428,0.00558106
34.6528,0.00553186
34.6628,0.0054833
34.6728,0.00543538
34.6828,0.00538808
34.6928,0.0053414
34.7028,0.00529532
34.7128,0.00524983
34.7228,0.00520493
34.7328,0.0051606
34.7428,0.00511683
34.7528,0.00507361
34.7628,0.00503094
34.7728,0.00498881
34.7828,0.0049472
34.7928,0.00490611
34.8028,0.00486553
34.8128,0.00482544
34.8228,0.00478586
34.8328,0.00474675
34.8428,0.00470812
34.8528,0.00466997
34.8628,0.00463227
34.8728,0.00459503
34.8828,0.00455823
34.8928,0.00452187
34.9028,0.00448595
34.9128,0.00445045
34.9228,0.00441537
34.9328,0.00438071
34.9428,0.00434645
34.9528,0.00431259
34.9628,0.00427912
34.9728,0.00424604
34.9828,0.00421334
34.9928,0.00418102
35.0028,0.00414907
35.0128,0.00411748
35.0228,0.00408626
35.0328,0.00405538
35.0428,0.00402485
35.0528,0.00399467
35.0628,0.00396483
35.0728,0.00393531
35.0828,0.00390613
35.0928,0.00387727
35.1028,0.00384872
35.1128,0.00382049
35.1228,0.00379257
35.1328,0.00376496
35.1428,0.00373764
35.1528,0.00371062
35.1628,0.00368389
35.1728,0.00365745
35.1828,0.0036313
35.1928,0.00360542
35.2028,0.00357982
35.2128,0.00355448
35.2228,0.00352942
35.2328,0.00350462
35.2428,0.00348008
35.2528,0.0034558
35.2628,0.00343177
35.2728,0.00340799
35.2828,0.00338445
35.2928,0.00336116
35.3028,0.00333811
35.3128,0.0033153
35.3228,0.00329271
35.3328,0.00327036
35.3428,0.00324823
35.3528,0.00322633
35.3628,0.00320465
35.3728,0.00318318
35.3828,0.00316193
35.3928,0.00314089
35.4028,0.00312006
35.4128,0.00309944
35.4228,0.00307902
35.4328,0.0030588
35.4428,0.00303878
35.4528,0.00301896
35.4628,0.00299933
35.4728,0.00297989
35.4828,0.00296064
35.4928,0.00294157
35.5028,0.00292269
35.5128,0.00290399
35.5228,0.00288546
35.5328,0.00286712
35.5428,0.00284894
35.5528,0.00283094
35.5628,0.00281311
35.5728,0.00279545
35.5828,0.00277796
35.5928,0.00276062
35.6028,0.00274345
35.6128,0.00272644
35.6228,0.00270959
35.6328,0.00269289
35.6428,0.00267634
35.6528,0.00265995
35.6628,0.00264371
35.6728,0.00262761
35.6828,0.00261166
35.6928,0.00259586
35.7028,0.0025802
35.7128,0.00256468
35.7228,0.0025493
35.7328,0.00253406
35.7428,0.00251895
35.7528,0.00250398
35.7628,0.00248914
35.7728,0.00247444
35.7828,0.00245986
35.7928,0.00244541
35.8028,0.00243109
35.8128,0.00241689
35.8228,0.00240282
35.8328,0.00238887
35.8428,0.00237504
35.8528,0.00236133
35.8628,0.00234774
35.8728,0.00233426
35.8828,0.00232091
35.8928,0.00230766
35.9028,0.00229453
35.9128,0.00228151
35.9228,0.0022686
35.9328,0.0022558
35.9428,0.00224311
35.9528,0.00223052
35.9628,0.00221804
35.9728,0.00220567
35.9828,0.0021934
35.9928,0.00218123
36.0028,0.00216916
36.0128,0.00215719
36.0228,0.00214532
36.0328,0.00213354
36.0428,0.00212187
36.0528,0.00211029
36.0628,0.0020988
36.0728,0.00208741
36.0828,0.00207611
36.0928,0.0020649
36.1028,0.00205378
36.1128,0.00204275
36.1228,0.00203181
36.1328,0.00202096
36.1428,0.00201019
36.1528,0.00199951
36.1628,0.00198892
36.1728,0.0019784
36.1828,0.00196798
36.1928,0.00195763
36.2028,0.00194736
36.2128,0.00193718
36.2228,0.00192707
36.2328,0.00191705
36.2428,0.0019071
36.2528,0.00189723
36.2628,0.00188743
36.2728,0.00187772
36.2828,0.00186807
36.2928,0.0018585
36.3028,0.00184901
36.3128,0.00183958
36.3228,0.00183023
36.3328,0.00182095
36.3428,0.00181174
36.3528,0.0018026
36.3628,0.00179352
36.3728,0.00178452
36.3828,0.00177558
36.3928,0.00176671
36.4028,0.00175791
36.4128,0.00174917
36.4228,0.0017405
36.4328,0.00173189
36.4428,0.00172335
36.4528,0.00171487
36.4628,0.00170645
36.4728,0.00169809
36.4828,0.00168979
36.4928,0.00168156
36.5028,0.00167338
36.5128,0.00166527
36.5228,0.00165721
36.5328,0.00164921
36.5428,0.00164127
36.5528,0.00163339
36.5628,0.00162556
36.5728,0.00161779
36.5828,0.00161007
36.5928,0.00160241
36.6028,0.00159481
36.6128,0.00158726
36.6228,0.00157976
36.6328,0.00157231
36.6428,0.00156492
36.6528,0.00155758
36.6628,0.00155029
36.6728,0.00154305
36.6828,0.00153586
36.6928,0.00152872
36.7028,0.00152164
36.7128,0.0015146
36.7228,0.00150761
36.7328,0.00150066
36.7428,0.00149377
36.7528,0.00148692
36.7628,0.00148012
36.7728,0.00147337
36.7828,0.00146666
36.7928,0.00146
36.8028,0.00145338
36.8128,0.00144681
36.8228,0.00144029
36.8328,0.0014338
36.8428,0.00142736
36.8528,0.00142097
36.8628,0.00141461
36.8728,0.0014083
36.8828,0.00140204
36.8928,0.00139581
36.9028,0.00138962
36.9128,0.00138348
36.9228,0.00137737
36.9328,0.00137131
36.9428,0.00136529
36.9528,0.0013593
36.9628,0.00135336
36.9728,0.00134745
36.9828,0.00134159
36.9928,0.00133576
37.0028,0.00132997
37.0128,0.00132421
37.0228,0.0013185
37.0328,0.00131282
37.0428,0.00130717
37.0528,0.00130157
37.0628,0.001296
37.0728,0.00129046
37.0828,0.00128496
37.0928,0.0012795
37.1028,0.00127407
37.1128,0.00126867
37.1228,0.00126331
37.1328,0.00125798
37.1428,0.00125269
37.1528,0.00124743
37.1628,0.0012422
37.1728,0.00123701
37.1828,0.00123185
37.1928,0.00122672
37.2028,0.00122162
37.2128,0.00121655
37.2228,0.00121152
37.2328,0.00120652
37.2428,0.00120154
37.2528,0.0011966
37.2628,0.00119169
37.2728,0.00118681
37.2828,0.00118196
37.2928,0.00117714
37.3028,0.00117234
37.3128,0.00116758
37.3228,0.00116285
37.3328,0.00115814
37.3428,0.00115347
37.3528,0.00114882
37.3628,0.0011442
37.3728,0.0011396
37.3828,0.00113504
37.3928,0.0011305
37.4028,0.00112599
37.4128,0.00112151
37.4228,0.00111705
37.4328,0.00111262
37.4428,0.00110822
37.4528,0.00110384
37.4628,0.00109948
37.4728,0.00109516
37.4828,0.00109086
37.4928,0.00108658
37.5028,0.00108233
37.5128,0.00107811
37.5228,0.0010739
37.5328,0.00106973
37.5428,0.00106558
37.5528,0.00106145
37.5628,0.00105734
37.5728,0.00105326
37.5828,0.00104921
37.5928,0.00104517
37.6028,0.00104116
37.6128,0.00103717
37.6228,0.00103321
37.6328,0.00102927
37.6428,0.00102535
37.6528,0.00102145
37.6628,0.00101758
37.6728,0.00101373
37.6828,0.00100989
37.6928,0.00100609
37.7028,0.0010023
37.7128,0.000998531
37.7228,0.000994786
37.7328,0.000991062
37.7428,0.000987359
37.7528,0.000983676
37.7628,0.000980014
37.7728,0.000976373
37.7828,0.000972751
37.7928,0.00096915
37.8028,0.000965569
37.8128,0.000962007
37.8228,0.000958465
37.8328,0.000954943
37.8428,0.00095144
37.8528,0.000947956
37.8628,0.000944492
37.8728,0.000941046
37.8828,0.000937619
37.8928,0.000934211
37.9028,0.000930822
37.9128,0.000927451
37.9228,0.000924098
37.9328,0.000920763
37.9428,0.000917446
37.9528,0.000914147
37.9628,0.000910866
37.9728,0.000907603
37.9828,0.000904357
37.9928,0.000901128
38.0028,0.000897917
38.0128,0.000894722
38.0228,0.000891545
38.0328,0.000888385
38.0428,0.000885241
38.0528,0.000882114
38.0628,0.000879004
38.0728,0.00087591
38.0828,0.000872833
38.0928,0.000869771
38.1028,0.000866726
38.1128,0.000863696
38.1228,0.000860683
38.1328,0.000857685
38.1428,0.000854703
38.1528,0.000851736
38.1628,0.000848785
38.1728,0.000845849
38.1828,0.000842928
38.1928,0.000840022
38.2028,0.000837132
38.2128,0.000834256
38.2228,0.000831395
38.2328,0.000828549
38.2428,0.000825717
38.2528,0.0008229
38.2628,0.000820097
38.2728,0.000817309
38.2828,0.000814534
38.2928,0.000811774
38.3028,0.000809028
38.3128,0.000806295
38.3228,0.000803577
38.3328,0.000800872
38.3428,0.000798181
38.3528,0.000795503
38.3628,0.000792839
38.3728,0.000790188
38.3828,0.000787551
38.3928,0.000784927
38.4028,0.000782315
38.4128,0.000779717
38.4228,0.000777132
38.4328,0.000774559
38.4428,0.000771999
38.4528,0.000769452
38.4628,0.000766918
38.4728,0.000764396
38.4828,0.000761886
38.4928,0.000759389
38.5028,0.000756904
38.5128,0.000754431
38.5228,0.00075197
38.5328,0.000749522
38.5428,0.000747085
38.5528,0.00074466
38.5628,0.000742247
38.5728,0.000739846
38.5828,0.000737456
38.5928,0.000735078
38.6028,0.000732711
38.6128,0.000730355
38.6228,0.000728011
38.6328,0.000725679
38.6428,0.000723357
38.6528,0.000721047
38.6628,0.000718747
38.6728,0.000716459
38.6828,0.000714182
38.6928,0.000711915
38.7028,0.000709659
38.7128,0.000707414
38.7228,0.000705179
38.7328,0.000702955
38.7428,0.000700742
38.7528,0.000698539
38.7628,0.000696346
38.7728,0.000694164
38.7828,0.000691992
38.7928,0.00068983
38.8028,0.000687678
38.8128,0.000685536
38.8228,0.000683405
38.8328,0.000681283
38.8428,0.000679171
38.8528,0.000677068
38.8628,0.000674976
38.8728,0.000672893
38.8828,0.00067082
38.8928,0.000668757
38.9028,0.000666703
38.9128,0.000664658
38.9228,0.000662623
38.9328,0.000660597
38.9428,0.00065858
38.9528,0.000656573
38.9628,0.000654575
38.9728,0.000652585
38.9828,0.000650605
38.9928,0.000648634
39.0028,0.000646672
39.0128,0.000644719
39.0228,0.000642774
39.0328,0.000640839
39.0428,0.000638912
39.0528,0.000636994
39.0628,0.000635084
39.0728,0.000633183
39.0828,0.00063129
39.0928,0.000629406
39.1028,0.000627531
39.1128,0.000625664
39.1228,0.000623805
39.1328,0.000621954
39.1428,0.000620112
39.1528,0.000618277
39.1628,0.000616451
39.1728,0.000614633
39.1828,0.000612823
39.1928,0.000611021
39.2028,0.000609227
39.2128,0.000607441
39.2228,0.000605662
39.2328,0.000603892
39.2428,0.000602129
39.2528,0.000600374
39.2628,0.000598626
39.2728,0.000596886
39.2828,0.000595154
39.2928,0.000593429
39.3028,0.000591712
39.3128,0.000590002
39.3228,0.0005883
39.3328,0.000586605
39.3428,0.000584917
39.3528,0.000583237
39.3628,0.000581563
39.3728,0.000579897
39.3828,0.000578238
39.3928,0.000576587
39.4028,0.000574942
39.4128,0.000573304
39.4228,0.000571673
39.4328,0.00057005
39.4428,0.000568433
39.4528,0.000566823
39.4628,0.00056522
39.4728,0.000563623
39.4828,0.000562034
39.4928,0.000560451
39.5028,0.000558874
39.5128,0.000557305
39.5228,0.000555742
39.5328,0.000554185
39.5428,0.000552635
39.5528,0.000551092
39.5628,0.000549555
39.5728,0.000548025
39.5828,0.0005465
39.5928,0.000544983
39.6028,0.000543471
39.6128,0.000541966
39.6228,0.000540467
39.6328,0.000538974
39.6428,0.000537488
39.6528,0.000536007
39.6628,0.000534533
39.6728,0.000533064
39.6828,0.000531602
39.6928,0.000530146
39.7028,0.000528696
39.7128,0.000527252
39.7228,0.000525813
39.7328,0.000524381
39.7428,0.000522954
39.7528,0.000521533
39.7628,0.000520118
39.7728,0.000518709
39.7828,0.000517305
39.7928,0.000515907
39.8028,0.000514515
39.8128,0.000513128
39.8228,0.000511747
39.8328,0.000510372
39.8428,0.000509002
39.8528,0.000507637
39.8628,0.000506279
39.8728,0.000504925
39.8828,0.000503577
39.8928,0.000502234
39.9028,0.000500897
39.9128,0.000499565
39.9228,0.000498238
39.9328,0.000496917
39.9428,0.000495601
39.9528,0.00049429
39.9628,0.000492984
39.9728,0.000491683
39.9828,0.000490388
39.9928,0.000489098
40.0028,0.000487812
40.0128,0.000486532
40.0228,0.000485257
40.0328,0.000483987
40.0428,0.000482722
40.0528,0.000481462
40.0628,0.000480206
40.0728,0.000478956
40.0828,0.00047771
40.0928,0.00047647
40.1028,0.000475234
40.1128,0.000474003
40.1228,0.000472777
40.1328,0.000471555
40.1428,0.000470338
40.1528,0.000469126
40.1628,0.000467919
40.1728,0.000466716
40.1828,0.000465518
40.1928,0.000464325
40.2028,0.000463136
40.2128,0.000461951
40.2228,0.000460772
40.2328,0.000459596
40.2428,0.000458426
40.2528,0.000457259
40.2628,0.000456097
40.2728,0.00045494
40.2828,0.000453787
40.2928,0.000452638
40.3028,0.000451494
40.3128,0.000450354
40.3228,0.000449218