File: park_2000/900C_xrd/curve_total_fit.dat
33.3714,0.460641
33.4214,0.460694
33.4714,0.460755
33.5214,0.460823
33.5714,0.460901
33.6214,0.46099
33.6714,0.461094
33.7214,0.461214
33.7714,0.461356
33.8214,0.461524
33.8714,0.461725
33.9214,0.461969
33.9714,0.462268
34.0214,0.462641
34.0714,0.463113
34.1214,0.463725
34.1714,0.464535
34.2214,0.46564
34.2714,0.467201
34.3214,0.469506
34.3714,0.473108
34.4214,0.479179
34.4714,0.490533
34.5214,0.515171
34.5714,0.581051
34.6214,0.776595
34.6714,0.814847
34.7214,0.598131
34.7714,0.520891
34.8214,0.492929
34.8714,0.480377
34.9214,0.473785
34.9714,0.469923
35.0214,0.467476
35.0714,0.46583
35.1214,0.464672
35.1714,0.463827
35.2214,0.463191
35.2714,0.462702
35.3214,0.462316
35.3714,0.462008
35.4214,0.461757
35.4714,0.46155
35.5214,0.461378
35.5714,0.461233
35.6214,0.46111
35.6714,0.461004
35.7214,0.460913
35.7714,0.460833
35.8214,0.460764
35.8714,0.460703
35.9214,0.460649
35.9714,0.4606
36.0214,0.460558
36.0714,0.460519
36.1214,0.460484
36.1714,0.460453
36.2214,0.460425
36.2714,0.460399
36.3214,0.460376
36.3714,0.460354
36.4214,0.460334
36.4714,0.460316
36.5214,0.4603
36.5714,0.460284
36.6214,0.46027
36.6714,0.460257
36.7214,0.460245
36.7714,0.460233
36.8214,0.460223
36.8714,0.460213
36.9214,0.460203
36.9714,0.460195
37.0214,0.460187
37.0714,0.460179
37.1214,0.460172
37.1714,0.460165
37.2214,0.460159
37.2714,0.460153
37.3214,0.460147
37.3714,0.460142
37.4214,0.460137
37.4714,0.460132
37.5214,0.460127
37.5714,0.460123
37.6214,0.460119
37.6714,0.460115
37.7214,0.460111
37.7714,0.460108
37.8214,0.460104
37.8714,0.460101
37.9214,0.460098
37.9714,0.460095
38.0214,0.460092
38.0714,0.46009
38.1214,0.460087
38.1714,0.460085
38.2214,0.460082
38.2714,0.46008
38.3214,0.460078
38.3714,0.460076
38.4214,0.460074
38.4714,0.460072
38.5214,0.46007
38.5714,0.460068
38.6214,0.460067
38.6714,0.460065
38.7214,0.460063
38.7714,0.460062
38.8214,0.46006
38.8714,0.460059
38.9214,0.460058
38.9714,0.460056
39.0214,0.460055
39.0714,0.460054
39.1214,0.460053
39.1714,0.460051
39.2214,0.46005
39.2714,0.460049
39.3214,0.460048
39.3714,0.460047
39.4214,0.460046
39.4714,0.460045
39.5214,0.460044
39.5714,0.460043
39.6214,0.460042
39.6714,0.460042
39.7214,0.460041
39.7714,0.46004
39.8214,0.460039
39.8714,0.460039
39.9214,0.460038
39.9714,0.460037
40.0214,0.460036
40.0714,0.460036
40.1214,0.460035
40.1714,0.460034
40.2214,0.460034
40.2714,0.460033
40.3214,0.460033
40.3714,0.460032
40.4214,0.460032
40.4714,0.460031
40.5214,0.46003
40.5714,0.46003
40.6214,0.460029
40.6714,0.460029
40.7214,0.460028
40.7714,0.460028
40.8214,0.460028
40.8714,0.460027
40.9214,0.460027
40.9714,0.460026
41.0214,0.460026
41.0714,0.460025
41.1214,0.460025
41.1714,0.460025
41.2214,0.460024
41.2714,0.460024
41.3214,0.460024
41.3714,0.460023
41.4214,0.460023
41.4714,0.460023
41.5214,0.460022
41.5714,0.460022
41.6214,0.460022
41.6714,0.460021
41.7214,0.460021
41.7714,0.460021
41.8214,0.46002
41.8714,0.46002
41.9214,0.46002
41.9714,0.46002
42.0214,0.460019
42.0714,0.460019
42.1214,0.460019
42.1714,0.460019
42.2214,0.460018
42.2714,0.460018
42.3214,0.460018
42.3714,0.460018
42.4214,0.460017
42.4714,0.460017
42.5214,0.460017
42.5714,0.460017
42.6214,0.460017
42.6714,0.460016
42.7214,0.460016
42.7714,0.460016
42.8214,0.460016
42.8714,0.460016
42.9214,0.460015
42.9714,0.460015
43.0214,0.460015
43.0714,0.460015
43.1214,0.460015
43.1714,0.460014
43.2214,0.460014
43.2714,0.460014
43.3214,0.460014
43.3714,0.460014
43.4214,0.460014
43.4714,0.460013
43.5214,0.460013
43.5714,0.460013
43.6214,0.460013
43.6714,0.460013
43.7214,0.460013
43.7714,0.460013
43.8214,0.460012
43.8714,0.460012
43.9214,0.460012
43.9714,0.460012
44.0214,0.460012
44.0714,0.460012
44.1214,0.460012
44.1714,0.460012
44.2214,0.460011
44.2714,0.460011
44.3214,0.460011
44.3714,0.460011
44.4214,0.460011
44.4714,0.460011
44.5214,0.460011
44.5714,0.460011
44.6214,0.460011
44.6714,0.46001
44.7214,0.46001
44.7714,0.46001
44.8214,0.46001
44.8714,0.46001
44.9214,0.46001
44.9714,0.46001
45.0214,0.46001
45.0714,0.46001
45.1214,0.46001
45.1714,0.460009
45.2214,0.460009
45.2714,0.460009
45.3214,0.460009
45.3714,0.460009
45.4214,0.460009
45.4714,0.460009
45.5214,0.460009
45.5714,0.460009
45.6214,0.460009
45.6714,0.460009
45.7214,0.460009
45.7714,0.460008
45.8214,0.460008
45.8714,0.460008
45.9214,0.460008
45.9714,0.460008
46.0214,0.460008
46.0714,0.460008
46.1214,0.460008
46.1714,0.460008
46.2214,0.460008
46.2714,0.460008
46.3214,0.460008
46.3714,0.460008
46.4214,0.460008
46.4714,0.460008
46.5214,0.460007
46.5714,0.460007
46.6214,0.460007
46.6714,0.460007
46.7214,0.460007
46.7714,0.460007
46.8214,0.460007
46.8714,0.460007
46.9214,0.460007
46.9714,0.460007
47.0214,0.460007
47.0714,0.460007
47.1214,0.460007
47.1714,0.460007
47.2214,0.460007
47.2714,0.460007
47.3214,0.460007
47.3714,0.460006
47.4214,0.460006
47.4714,0.460006
47.5214,0.460006
47.5714,0.460006
47.6214,0.460006
47.6714,0.460006
47.7214,0.460006
47.7714,0.460006
47.8214,0.460006
47.8714,0.460006
47.9214,0.460006
47.9714,0.460006
48.0214,0.460006
48.0714,0.460006
48.1214,0.460006
48.1714,0.460006
48.2214,0.460006
48.2714,0.460006
48.3214,0.460006
48.3714,0.460006
48.4214,0.460006
48.4714,0.460005
48.5214,0.460005
48.5714,0.460005
48.6214,0.460005
48.6714,0.460005
48.7214,0.460005
48.7714,0.460005
48.8214,0.460005
48.8714,0.460005
48.9214,0.460005
48.9714,0.460005
49.0214,0.460005
49.0714,0.460005
49.1214,0.460005
49.1714,0.460005
49.2214,0.460005
49.2714,0.460005
49.3214,0.460005
49.3714,0.460005
49.4214,0.460005
49.4714,0.460005
49.5214,0.460005
49.5714,0.460005
49.6214,0.460005
49.6714,0.460005
49.7214,0.460005
49.7714,0.460005
49.8214,0.460005
49.8714,0.460005
49.9214,0.460005
49.9714,0.460004
50.0214,0.460004
50.0714,0.460004
50.1214,0.460004
50.1714,0.460004
50.2214,0.460004
50.2714,0.460004
50.3214,0.460004
50.3714,0.460004
50.4214,0.460004
50.4714,0.460004
50.5214,0.460004
50.5714,0.460004
50.6214,0.460004
50.6714,0.460004
50.7214,0.460004
50.7714,0.460004
50.8214,0.460004
50.8714,0.460004
50.9214,0.460004
50.9714,0.460004
51.0214,0.460004
51.0714,0.460004
51.1214,0.460004
51.1714,0.460004
51.2214,0.460004
51.2714,0.460004
51.3214,0.460004
51.3714,0.460004
51.4214,0.460004
51.4714,0.460004
51.5214,0.460004
51.5714,0.460004
51.6214,0.460004
51.6714,0.460004
51.7214,0.460004
51.7714,0.460004
51.8214,0.460004
51.8714,0.460004
51.9214,0.460004
51.9714,0.460003
52.0214,0.460003
52.0714,0.460003
52.1214,0.460003
52.1714,0.460003
52.2214,0.460003
52.2714,0.460003
52.3214,0.460003
52.3714,0.460003
52.4214,0.460003
52.4714,0.460003
52.5214,0.460003
52.5714,0.460003
52.6214,0.460003
52.6714,0.460003
52.7214,0.460003
52.7714,0.460003
52.8214,0.460003
52.8714,0.460003
52.9214,0.460003
52.9714,0.460003
53.0214,0.460003
53.0714,0.460003
53.1214,0.460003
53.1714,0.460003
53.2214,0.460003
53.2714,0.460003
53.3214,0.460003
53.3714,0.460003
53.4214,0.460003
53.4714,0.460003
53.5214,0.460003
53.5714,0.460003
53.6214,0.460003
53.6714,0.460003
53.7214,0.460003
53.7714,0.460003
53.8214,0.460003
53.8714,0.460003
53.9214,0.460003
53.9714,0.460003
54.0214,0.460003
54.0714,0.460003
54.1214,0.460003
54.1714,0.460003
54.2214,0.460003
54.2714,0.460003
54.3214,0.460003
54.3714,0.460003
54.4214,0.460003
54.4714,0.460003
54.5214,0.460003
54.5714,0.460003
54.6214,0.460003
54.6714,0.460003
54.7214,0.460003
54.7714,0.460003
54.8214,0.460003
54.8714,0.460003
54.9214,0.460003
54.9714,0.460003
55.0214,0.460003
55.0714,0.460003
55.1214,0.460003
55.1714,0.460002
55.2214,0.460002
55.2714,0.460002
55.3214,0.460002
55.3714,0.460002
55.4214,0.460002
55.4714,0.460002
55.5214,0.460002
55.5714,0.460002
55.6214,0.460002
55.6714,0.460002
55.7214,0.460002
55.7714,0.460002
55.8214,0.460002
55.8714,0.460002
55.9214,0.460002
55.9714,0.460002
56.0214,0.460002
56.0714,0.460002
56.1214,0.460002
56.1714,0.460002
56.2214,0.460002
56.2714,0.460002
56.3214,0.460002
56.3714,0.460002
56.4214,0.460002
56.4714,0.460002
56.5214,0.460002
56.5714,0.460002
56.6214,0.460002
56.6714,0.460002
56.7214,0.460002
56.7714,0.460002
56.8214,0.460002
56.8714,0.460002
56.9214,0.460002
56.9714,0.460002
57.0214,0.460002
57.0714,0.460002
57.1214,0.460002
57.1714,0.460002
57.2214,0.460002
57.2714,0.460002
57.3214,0.460002
57.3714,0.460002
57.4214,0.460002
57.4714,0.460002
57.5214,0.460002
57.5714,0.460002
57.6214,0.460002
57.6714,0.460002
57.7214,0.460002
57.7714,0.460002
57.8214,0.460002
57.8714,0.460002
57.9214,0.460002
57.9714,0.460002
58.0214,0.460002
58.0714,0.460002
58.1214,0.460002
58.1714,0.460002
58.2214,0.460002
58.2714,0.460002
58.3214,0.460002
58.3714,0.460002
58.4214,0.460002
58.4714,0.460002
58.5214,0.460002
58.5714,0.460002
58.6214,0.460002
58.6714,0.460002
58.7214,0.460002
58.7714,0.460002
58.8214,0.460002
58.8714,0.460002
58.9214,0.460002
58.9714,0.460002
59.0214,0.460002
59.0714,0.460002
59.1214,0.460002
59.1714,0.460002
59.2214,0.460002
59.2714,0.460002
59.3214,0.460002
59.3714,0.460002
59.4214,0.460002
59.4714,0.460002
59.5214,0.460002
59.5714,0.460002
59.6214,0.460002
59.6714,0.460002
59.7214,0.460002
59.7714,0.460002
59.8214,0.460002
59.8714,0.460002
59.9214,0.460002
59.9714,0.460002
60.0214,0.460002
60.0714,0.460002
60.1214,0.460002
60.1714,0.460002
60.2214,0.460002
60.2714,0.460002
60.3214,0.460002
60.3714,0.460002
60.4214,0.460002
60.4714,0.460002
60.5214,0.460002
60.5714,0.460002
60.6214,0.460002
60.6714,0.460002
60.7214,0.460002
60.7714,0.460002
60.8214,0.460002
60.8714,0.460002
60.9214,0.460002
60.9714,0.460002
61.0214,0.460002
61.0714,0.460002
61.1214,0.460001
61.1714,0.460001
61.2214,0.460001
61.2714,0.460001
61.3214,0.460001
61.3714,0.460001
61.4214,0.460001
61.4714,0.460001
61.5214,0.460001
61.5714,0.460001
61.6214,0.460001
61.6714,0.460001
61.7214,0.460001
61.7714,0.460001
61.8214,0.460001
61.8714,0.460001
61.9214,0.460001
61.9714,0.460001
62.0214,0.460001
62.0714,0.460001
62.1214,0.460001
62.1714,0.460001
62.2214,0.460001
62.2714,0.460001
62.3214,0.460001
62.3714,0.460001
62.4214,0.460001
62.4714,0.460001
62.5214,0.460001
62.5714,0.460001
62.6214,0.460001
62.6714,0.460001
62.7214,0.460001
62.7714,0.460001
62.8214,0.460001
62.8714,0.460001
62.9214,0.460001
62.9714,0.460001
63.0214,0.460001
63.0714,0.460001
63.1214,0.460001
63.1714,0.460001
63.2214,0.460001
63.2714,0.460001
63.3214,0.460001
63.3714,0.460001
63.4214,0.460001
63.4714,0.460001
63.5214,0.460001
63.5714,0.460001
63.6214,0.460001
63.6714,0.460001
63.7214,0.460001
63.7714,0.460001
63.8214,0.460001
63.8714,0.460001
63.9214,0.460001
63.9714,0.460001
64.0214,0.460001
64.0714,0.460001
64.1214,0.460001
64.1714,0.460001
64.2214,0.460001
64.2714,0.460001
64.3214,0.460001
64.3714,0.460001
64.4214,0.460001
64.4714,0.460001
64.5214,0.460001
64.5714,0.460001
64.6214,0.460001
64.6714,0.460001
64.7214,0.460001
64.7714,0.460001
64.8214,0.460001
64.8714,0.460001
64.9214,0.460001
64.9714,0.460001
65.0214,0.460001
65.0714,0.460001
65.1214,0.460001
65.1714,0.460001
65.2214,0.460001
65.2714,0.460001
65.3214,0.460001
65.3714,0.460001
65.4214,0.460001
65.4714,0.460001
65.5214,0.460001
65.5714,0.460001
65.6214,0.460001
65.6714,0.460001
65.7214,0.460001
65.7714,0.460001
65.8214,0.460001
65.8714,0.460001
65.9214,0.460001
65.9714,0.460001
66.0214,0.460001
66.0714,0.460001
66.1214,0.460001
66.1714,0.460001
66.2214,0.460001
66.2714,0.460001
66.3214,0.460001
66.3714,0.460001
66.4214,0.460001
66.4714,0.460001
66.5214,0.460001
66.5714,0.460001
66.6214,0.460001
66.6714,0.460001
66.7214,0.460001
66.7714,0.460001
66.8214,0.460001
66.8714,0.460001
66.9214,0.460001
66.9714,0.460001
67.0214,0.460001
67.0714,0.460001
67.1214,0.460001
67.1714,0.460001
67.2214,0.460001
67.2714,0.460001
67.3214,0.460001
67.3714,0.460001
67.4214,0.460001
67.4714,0.460001
67.5214,0.460001
67.5714,0.460001
67.6214,0.460001
67.6714,0.460001
67.7214,0.460001
67.7714,0.460001
67.8214,0.460001
67.8714,0.460001
67.9214,0.460001
67.9714,0.460001
68.0214,0.460001
68.0714,0.460001
68.1214,0.460001
68.1714,0.460001
68.2214,0.460001
68.2714,0.460001
68.3214,0.460001
68.3714,0.460001
68.4214,0.460001
68.4714,0.460001
68.5214,0.460001
68.5714,0.460001
68.6214,0.460001
68.6714,0.460001
68.7214,0.460001
68.7714,0.460001
68.8214,0.460001
68.8714,0.460001
68.9214,0.460001
68.9714,0.460001
69.0214,0.460001
69.0714,0.460001
69.1214,0.460001
69.1714,0.460001
69.2214,0.460001
69.2714,0.460001
69.3214,0.460001
69.3714,0.460001
69.4214,0.460001
69.4714,0.460001
69.5214,0.460001
69.5714,0.460001
69.6214,0.460001
69.6714,0.460001
69.7214,0.460001
69.7714,0.460001
69.8214,0.460001
69.8714,0.460001
69.9214,0.460001
69.9714,0.460001
70.0214,0.460001
70.0714,0.460001
70.1214,0.460001
70.1714,0.460001
70.2214,0.460001
70.2714,0.460001
70.3214,0.460001
70.3714,0.460001
70.4214,0.460001
70.4714,0.460001
70.5214,0.460001
70.5714,0.460001
70.6214,0.460001
70.6714,0.460001
70.7214,0.460001
70.7714,0.460001
70.8214,0.460001
70.8714,0.460001
70.9214,0.460001
70.9714,0.460001
71.0214,0.460001
71.0714,0.460001
71.1214,0.460001
71.1714,0.460001
71.2214,0.460001
71.2714,0.460001
71.3214,0.460001
71.3714,0.460001
71.4214,0.460001
71.4714,0.460001
71.5214,0.460001
71.5714,0.460001
71.6214,0.460001
71.6714,0.460001
71.7214,0.460001
71.7714,0.460001
71.8214,0.460001
71.8714,0.460001
71.9214,0.460001
71.9714,0.460002
72.0214,0.460003
72.0714,0.460005
72.1214,0.460011
72.1714,0.460023
72.2214,0.460046
72.2714,0.460089
72.3214,0.460166
72.3714,0.460296
72.4214,0.460506
72.4714,0.460828
72.5214,0.461296
72.5714,0.46194
72.6214,0.462779
72.6714,0.463807
72.7214,0.464987
72.7714,0.46625
72.8214,0.467492
72.8714,0.468589
72.9214,0.469419
72.9714,0.469879
73.0214,0.46991
73.0714,0.469509
73.1214,0.468727
73.1714,0.467661
73.2214,0.466432
73.2714,0.465165
73.3214,0.463967
73.3714,0.462915
73.4214,0.462048
73.4714,0.461377
73.5214,0.460885
73.5714,0.460545
73.6214,0.460321
73.6714,0.460181
73.7214,0.460097
73.7714,0.46005
73.8214,0.460025
73.8714,0.460012
73.9214,0.460006
73.9714,0.460003
74.0214,0.460002
74.0714,0.460001
74.1214,0.460001
74.1714,0.460001
74.2214,0.460001
74.2714,0.460001
74.3214,0.460001
74.3714,0.460001