File: park_2000/900C_xrd/curve_2_fit.dat
33.3714,0.0
33.4214,0.0
33.4714,0.0
33.5214,0.0
33.5714,0.0
33.6214,0.0
33.6714,0.0
33.7214,0.0
33.7714,0.0
33.8214,0.0
33.8714,0.0
33.9214,0.0
33.9714,0.0
34.0214,0.0
34.0714,0.0
34.1214,0.0
34.1714,0.0
34.2214,0.0
34.2714,0.0
34.3214,0.0
34.3714,0.0
34.4214,0.0
34.4714,0.0
34.5214,0.0
34.5714,0.0
34.6214,0.0
34.6714,0.0
34.7214,0.0
34.7714,0.0
34.8214,0.0
34.8714,0.0
34.9214,0.0
34.9714,0.0
35.0214,0.0
35.0714,0.0
35.1214,0.0
35.1714,0.0
35.2214,0.0
35.2714,0.0
35.3214,0.0
35.3714,0.0
35.4214,0.0
35.4714,0.0
35.5214,0.0
35.5714,0.0
35.6214,0.0
35.6714,0.0
35.7214,0.0
35.7714,0.0
35.8214,0.0
35.8714,0.0
35.9214,0.0
35.9714,0.0
36.0214,0.0
36.0714,0.0
36.1214,0.0
36.1714,0.0
36.2214,0.0
36.2714,0.0
36.3214,0.0
36.3714,0.0
36.4214,0.0
36.4714,0.0
36.5214,0.0
36.5714,0.0
36.6214,0.0
36.6714,0.0
36.7214,0.0
36.7714,0.0
36.8214,0.0
36.8714,0.0
36.9214,0.0
36.9714,0.0
37.0214,0.0
37.0714,0.0
37.1214,0.0
37.1714,0.0
37.2214,0.0
37.2714,0.0
37.3214,0.0
37.3714,0.0
37.4214,0.0
37.4714,0.0
37.5214,0.0
37.5714,0.0
37.6214,0.0
37.6714,0.0
37.7214,0.0
37.7714,0.0
37.8214,0.0
37.8714,0.0
37.9214,0.0
37.9714,0.0
38.0214,0.0
38.0714,0.0
38.1214,0.0
38.1714,0.0
38.2214,0.0
38.2714,0.0
38.3214,0.0
38.3714,0.0
38.4214,0.0
38.4714,0.0
38.5214,0.0
38.5714,0.0
38.6214,0.0
38.6714,0.0
38.7214,0.0
38.7714,0.0
38.8214,0.0
38.8714,0.0
38.9214,0.0
38.9714,0.0
39.0214,0.0
39.0714,0.0
39.1214,0.0
39.1714,0.0
39.2214,0.0
39.2714,0.0
39.3214,0.0
39.3714,0.0
39.4214,0.0
39.4714,0.0
39.5214,0.0
39.5714,0.0
39.6214,0.0
39.6714,0.0
39.7214,0.0
39.7714,0.0
39.8214,0.0
39.8714,0.0
39.9214,0.0
39.9714,0.0
40.0214,0.0
40.0714,0.0
40.1214,0.0
40.1714,0.0
40.2214,0.0
40.2714,0.0
40.3214,0.0
40.3714,0.0
40.4214,0.0
40.4714,0.0
40.5214,0.0
40.5714,0.0
40.6214,0.0
40.6714,0.0
40.7214,0.0
40.7714,0.0
40.8214,0.0
40.8714,0.0
40.9214,0.0
40.9714,0.0
41.0214,0.0
41.0714,0.0
41.1214,0.0
41.1714,0.0
41.2214,0.0
41.2714,0.0
41.3214,0.0
41.3714,0.0
41.4214,0.0
41.4714,0.0
41.5214,0.0
41.5714,0.0
41.6214,0.0
41.6714,0.0
41.7214,0.0
41.7714,0.0
41.8214,0.0
41.8714,0.0
41.9214,0.0
41.9714,0.0
42.0214,0.0
42.0714,0.0
42.1214,0.0
42.1714,0.0
42.2214,0.0
42.2714,0.0
42.3214,0.0
42.3714,0.0
42.4214,0.0
42.4714,0.0
42.5214,0.0
42.5714,0.0
42.6214,0.0
42.6714,0.0
42.7214,0.0
42.7714,0.0
42.8214,0.0
42.8714,0.0
42.9214,0.0
42.9714,0.0
43.0214,0.0
43.0714,0.0
43.1214,0.0
43.1714,0.0
43.2214,0.0
43.2714,0.0
43.3214,0.0
43.3714,0.0
43.4214,0.0
43.4714,0.0
43.5214,0.0
43.5714,0.0
43.6214,0.0
43.6714,0.0
43.7214,0.0
43.7714,0.0
43.8214,0.0
43.8714,0.0
43.9214,0.0
43.9714,0.0
44.0214,0.0
44.0714,0.0
44.1214,0.0
44.1714,0.0
44.2214,0.0
44.2714,0.0
44.3214,0.0
44.3714,0.0
44.4214,0.0
44.4714,0.0
44.5214,0.0
44.5714,0.0
44.6214,0.0
44.6714,0.0
44.7214,0.0
44.7714,0.0
44.8214,0.0
44.8714,0.0
44.9214,0.0
44.9714,0.0
45.0214,0.0
45.0714,0.0
45.1214,0.0
45.1714,0.0
45.2214,0.0
45.2714,0.0
45.3214,0.0
45.3714,0.0
45.4214,0.0
45.4714,0.0
45.5214,0.0
45.5714,0.0
45.6214,0.0
45.6714,0.0
45.7214,0.0
45.7714,0.0
45.8214,0.0
45.8714,0.0
45.9214,0.0
45.9714,0.0
46.0214,0.0
46.0714,0.0
46.1214,0.0
46.1714,0.0
46.2214,0.0
46.2714,0.0
46.3214,0.0
46.3714,0.0
46.4214,0.0
46.4714,0.0
46.5214,0.0
46.5714,0.0
46.6214,0.0
46.6714,0.0
46.7214,0.0
46.7714,0.0
46.8214,0.0
46.8714,0.0
46.9214,0.0
46.9714,0.0
47.0214,0.0
47.0714,0.0
47.1214,0.0
47.1714,0.0
47.2214,0.0
47.2714,0.0
47.3214,0.0
47.3714,0.0
47.4214,0.0
47.4714,0.0
47.5214,0.0
47.5714,0.0
47.6214,0.0
47.6714,0.0
47.7214,0.0
47.7714,0.0
47.8214,0.0
47.8714,0.0
47.9214,0.0
47.9714,0.0
48.0214,0.0
48.0714,0.0
48.1214,0.0
48.1714,0.0
48.2214,0.0
48.2714,0.0
48.3214,0.0
48.3714,0.0
48.4214,0.0
48.4714,0.0
48.5214,0.0
48.5714,0.0
48.6214,0.0
48.6714,0.0
48.7214,0.0
48.7714,0.0
48.8214,0.0
48.8714,0.0
48.9214,0.0
48.9714,0.0
49.0214,0.0
49.0714,0.0
49.1214,0.0
49.1714,0.0
49.2214,0.0
49.2714,0.0
49.3214,0.0
49.3714,0.0
49.4214,0.0
49.4714,0.0
49.5214,0.0
49.5714,0.0
49.6214,0.0
49.6714,0.0
49.7214,0.0
49.7714,0.0
49.8214,0.0
49.8714,0.0
49.9214,0.0
49.9714,0.0
50.0214,0.0
50.0714,0.0
50.1214,0.0
50.1714,0.0
50.2214,0.0
50.2714,0.0
50.3214,0.0
50.3714,0.0
50.4214,0.0
50.4714,0.0
50.5214,0.0
50.5714,0.0
50.6214,0.0
50.6714,0.0
50.7214,0.0
50.7714,0.0
50.8214,0.0
50.8714,0.0
50.9214,0.0
50.9714,0.0
51.0214,0.0
51.0714,0.0
51.1214,0.0
51.1714,0.0
51.2214,0.0
51.2714,0.0
51.3214,0.0
51.3714,0.0
51.4214,0.0
51.4714,0.0
51.5214,0.0
51.5714,0.0
51.6214,0.0
51.6714,0.0
51.7214,0.0
51.7714,0.0
51.8214,0.0
51.8714,0.0
51.9214,0.0
51.9714,0.0
52.0214,0.0
52.0714,0.0
52.1214,0.0
52.1714,0.0
52.2214,0.0
52.2714,0.0
52.3214,0.0
52.3714,0.0
52.4214,0.0
52.4714,0.0
52.5214,0.0
52.5714,0.0
52.6214,0.0
52.6714,0.0
52.7214,0.0
52.7714,0.0
52.8214,0.0
52.8714,0.0
52.9214,0.0
52.9714,0.0
53.0214,0.0
53.0714,0.0
53.1214,0.0
53.1714,0.0
53.2214,0.0
53.2714,0.0
53.3214,0.0
53.3714,0.0
53.4214,0.0
53.4714,0.0
53.5214,0.0
53.5714,0.0
53.6214,0.0
53.6714,0.0
53.7214,0.0
53.7714,0.0
53.8214,0.0
53.8714,0.0
53.9214,0.0
53.9714,0.0
54.0214,0.0
54.0714,0.0
54.1214,0.0
54.1714,0.0
54.2214,0.0
54.2714,0.0
54.3214,0.0
54.3714,0.0
54.4214,0.0
54.4714,0.0
54.5214,0.0
54.5714,0.0
54.6214,0.0
54.6714,0.0
54.7214,0.0
54.7714,0.0
54.8214,0.0
54.8714,0.0
54.9214,0.0
54.9714,0.0
55.0214,0.0
55.0714,0.0
55.1214,0.0
55.1714,0.0
55.2214,0.0
55.2714,0.0
55.3214,0.0
55.3714,0.0
55.4214,0.0
55.4714,0.0
55.5214,0.0
55.5714,0.0
55.6214,0.0
55.6714,0.0
55.7214,0.0
55.7714,0.0
55.8214,0.0
55.8714,0.0
55.9214,0.0
55.9714,0.0
56.0214,0.0
56.0714,0.0
56.1214,0.0
56.1714,0.0
56.2214,0.0
56.2714,0.0
56.3214,0.0
56.3714,0.0
56.4214,0.0
56.4714,0.0
56.5214,0.0
56.5714,0.0
56.6214,0.0
56.6714,0.0
56.7214,0.0
56.7714,0.0
56.8214,0.0
56.8714,0.0
56.9214,0.0
56.9714,0.0
57.0214,0.0
57.0714,0.0
57.1214,0.0
57.1714,0.0
57.2214,0.0
57.2714,0.0
57.3214,0.0
57.3714,0.0
57.4214,0.0
57.4714,0.0
57.5214,0.0
57.5714,0.0
57.6214,0.0
57.6714,0.0
57.7214,0.0
57.7714,0.0
57.8214,0.0
57.8714,0.0
57.9214,0.0
57.9714,0.0
58.0214,0.0
58.0714,0.0
58.1214,0.0
58.1714,0.0
58.2214,0.0
58.2714,0.0
58.3214,0.0
58.3714,0.0
58.4214,0.0
58.4714,0.0
58.5214,0.0
58.5714,0.0
58.6214,0.0
58.6714,0.0
58.7214,0.0
58.7714,0.0
58.8214,0.0
58.8714,0.0
58.9214,0.0
58.9714,0.0
59.0214,0.0
59.0714,0.0
59.1214,0.0
59.1714,0.0
59.2214,0.0
59.2714,0.0
59.3214,0.0
59.3714,0.0
59.4214,0.0
59.4714,0.0
59.5214,0.0
59.5714,0.0
59.6214,0.0
59.6714,0.0
59.7214,0.0
59.7714,0.0
59.8214,0.0
59.8714,0.0
59.9214,0.0
59.9714,0.0
60.0214,0.0
60.0714,0.0
60.1214,0.0
60.1714,0.0
60.2214,0.0
60.2714,0.0
60.3214,0.0
60.3714,0.0
60.4214,0.0
60.4714,0.0
60.5214,0.0
60.5714,0.0
60.6214,0.0
60.6714,0.0
60.7214,0.0
60.7714,0.0
60.8214,0.0
60.8714,0.0
60.9214,0.0
60.9714,0.0
61.0214,0.0
61.0714,0.0
61.1214,0.0
61.1714,0.0
61.2214,0.0
61.2714,0.0
61.3214,0.0
61.3714,0.0
61.4214,0.0
61.4714,0.0
61.5214,0.0
61.5714,0.0
61.6214,0.0
61.6714,0.0
61.7214,0.0
61.7714,0.0
61.8214,0.0
61.8714,0.0
61.9214,0.0
61.9714,0.0
62.0214,0.0
62.0714,0.0
62.1214,0.0
62.1714,0.0
62.2214,0.0
62.2714,0.0
62.3214,0.0
62.3714,0.0
62.4214,0.0
62.4714,0.0
62.5214,0.0
62.5714,0.0
62.6214,0.0
62.6714,0.0
62.7214,0.0
62.7714,0.0
62.8214,0.0
62.8714,0.0
62.9214,0.0
62.9714,0.0
63.0214,0.0
63.0714,0.0
63.1214,0.0
63.1714,0.0
63.2214,0.0
63.2714,0.0
63.3214,0.0
63.3714,0.0
63.4214,0.0
63.4714,0.0
63.5214,0.0
63.5714,0.0
63.6214,0.0
63.6714,0.0
63.7214,0.0
63.7714,0.0
63.8214,0.0
63.8714,0.0
63.9214,2.33e-321
63.9714,7.37114e-318
64.0214,2.22964e-314
64.0714,6.4507e-311
64.1214,1.78504e-307
64.1714,4.72456e-304
64.2214,1.19603e-300
64.2714,2.89599e-297
64.3214,6.70688e-294
64.3714,1.48564e-290
64.4214,3.1476e-287
64.4714,6.37843e-284
64.5214,1.23629e-280
64.5714,2.2919e-277
64.6214,4.06389e-274
64.6714,6.89221e-271
64.7214,1.11801e-267
64.7714,1.73461e-264
64.8214,2.57413e-261
64.8714,3.65367e-258
64.9214,4.9602e-255
64.9714,6.44078e-252
65.0214,7.99923e-249
65.0714,9.5023e-246
65.1214,1.07964e-242
65.1714,1.17328e-239
65.2214,1.21953e-236
65.2714,1.21242e-233
65.3214,1.15289e-230
65.3714,1.04855e-227
65.4214,9.12145e-225
65.4714,7.5894e-222
65.5214,6.03979e-219
65.5714,4.59734e-216
65.6214,3.34705e-213
65.6714,2.33071e-210
65.7214,1.55233e-207
65.7714,9.88897e-205
65.8214,6.02543e-202
65.8714,3.51153e-199
65.9214,1.95737e-196
65.9714,1.04357e-193
66.0214,5.32159e-191
66.0714,2.59556e-188
66.1214,1.21085e-185
66.1714,5.40282e-183
66.2214,2.3058e-180
66.2714,9.41224e-178
66.3214,3.67481e-175
66.3714,1.37229e-172
66.4214,4.9015e-170
66.4714,1.67449e-167
66.5214,5.47149e-165
66.5714,1.71001e-162
66.6214,5.11168e-160
66.6714,1.4615e-157
66.7214,3.99672e-155
66.7714,1.04539e-152
66.8214,2.61533e-150
66.8714,6.2581e-148
66.9214,1.43229e-145
66.9714,3.13536e-143
67.0214,6.5647e-141
67.0714,1.31466e-138
67.1214,2.51815e-136
67.1714,4.6134e-134
67.2214,8.08409e-132
67.2714,1.35491e-129
67.3214,2.17201e-127
67.3714,3.3303e-125
67.4214,4.88399e-123
67.4714,6.85073e-121
67.5214,9.19114e-119
67.5714,1.17943e-116
67.6214,1.44759e-114
67.6714,1.69938e-112
67.7214,1.90811e-110
67.7714,2.04922e-108
67.8214,2.10496e-106
67.8714,2.06809e-104
67.9214,1.94342e-102
67.9714,1.74676e-100
68.0214,1.50165e-98
68.0714,1.23474e-96
68.1214,9.71079e-95
68.1714,7.30471e-93
68.2214,5.25559e-91
68.2714,3.61669e-89
68.3214,2.38051e-87
68.3714,1.49865e-85
68.4214,9.02405e-84
68.4714,5.19724e-82
68.5214,2.86295e-80
68.5714,1.50843e-78
68.6214,7.60166e-77
68.6714,3.66405e-75
68.7214,1.68921e-73
68.7714,7.44866e-72
68.8214,3.14154e-70
68.8714,1.26729e-68
68.9214,4.8897e-67
68.9714,1.8045e-65
69.0214,6.36948e-64
69.0714,2.15041e-62
69.1214,6.94396e-61
69.1714,2.14469e-59
69.2214,6.33567e-58
69.2714,1.79016e-56
69.3214,4.83793e-55
69.3714,1.25054e-53
69.4214,3.09178e-52
69.4714,7.3112e-51
69.5214,1.65363e-49
69.5714,3.57734e-48
69.6214,7.40204e-47
69.6714,1.46492e-45
69.7214,2.77297e-44
69.7714,5.02052e-43
69.8214,8.69404e-42
69.8714,1.44001e-40
69.9214,2.28129e-39
69.9714,3.45672e-38
70.0214,5.00979e-37
70.0714,6.94456e-36
70.1214,9.20748e-35
70.1714,1.16764e-33
70.2214,1.41626e-32
70.2714,1.64305e-31
70.3214,1.82318e-30
70.3714,1.93498e-29
70.4214,1.96425e-28
70.4714,1.90715e-27
70.5214,1.77111e-26
70.5714,1.57317e-25
70.6214,1.33652e-24
70.6714,1.08604e-23
70.7214,8.44087e-23
70.7714,6.27479e-22
70.8214,4.46151e-21
70.8714,3.03413e-20
70.9214,1.97359e-19
70.9714,1.22787e-18
71.0214,7.3066e-18
71.0714,4.15862e-17
71.1214,2.26389e-16
71.1714,1.17877e-15
71.2214,5.87051e-15
71.2714,2.79636e-14
71.3214,1.27403e-13
71.3714,5.55183e-13
71.4214,2.314e-12
71.4714,9.22491e-12
71.5214,3.51747e-11
71.5714,1.28283e-10
71.6214,4.47486e-10
71.6714,1.493e-09
71.7214,4.76442e-09
71.7714,1.45422e-08
71.8214,4.24543e-08
71.8714,1.18545e-07
71.9214,3.16604e-07
71.9714,8.08758e-07
72.0214,1.97602e-06
72.0714,4.6178e-06
72.1214,1.03217e-05
72.1714,2.20665e-05
72.2214,4.5122e-05
72.2714,8.82498e-05
72.3214,0.000165086
72.3714,0.000295377
72.4214,0.00050549
72.4714,0.000827408
72.5214,0.00129538
72.5714,0.00193975
72.6214,0.0027782
72.6714,0.00380586
72.7214,0.00498669
72.7714,0.00624946
72.8214,0.00749105
72.8714,0.00858842
72.9214,0.00941791
72.9714,0.00987794
73.0214,0.00990943
73.0714,0.00950826
73.1214,0.00872618
73.1714,0.0076598
73.2214,0.00643105
73.2714,0.00516435
73.3214,0.00396662
73.3714,0.00291404
73.4214,0.00204758
73.4714,0.00137613
73.5214,0.000884596
73.5714,0.000543878
73.6214,0.000319838
73.6714,0.000179898
73.7214,9.67823e-05
73.7714,4.98006e-05
73.8214,2.451e-05
73.8714,1.15378e-05
73.9214,5.19486e-06
73.9714,2.23715e-06
74.0214,9.2148e-07
74.0714,3.63034e-07
74.1214,1.36798e-07
74.1714,4.9304e-08
74.2214,1.69963e-08
74.2714,5.60401e-09
74.3214,1.76731e-09
74.3714,5.33085e-10