File: park_2003/1000_xrd/curve_1_fit.dat
33.3346,0.0011949
33.3846,0.00129237
33.4346,0.00140226
33.4846,0.00152678
33.5346,0.00166864
33.5846,0.00183122
33.6346,0.00201875
33.6846,0.00223661
33.7346,0.0024917
33.7846,0.002793
33.8346,0.00315237
33.8846,0.00358574
33.9346,0.00411487
33.9846,0.00477013
34.0346,0.00559495
34.0846,0.00665314
34.1346,0.00804149
34.1846,0.00991246
34.2346,0.0125174
34.2846,0.0162939
34.3346,0.0220584
34.3846,0.0314729
34.4346,0.0483313
34.4846,0.0827438
34.5346,0.167834
34.5846,0.433114
34.6346,0.879292
34.6846,0.409246
34.7346,0.160576
34.7846,0.0800675
34.8346,0.047105
34.8846,0.0308198
34.9346,0.0216722
34.9846,0.0160474
35.0346,0.0123508
35.0846,0.00979479
35.1346,0.00795534
35.1846,0.00658822
35.2346,0.00554482
35.2846,0.00473062
35.3346,0.00408319
35.3846,0.00355996
35.4346,0.00313111
35.4846,0.00277526
35.5346,0.00247674
35.5846,0.00222389
35.6346,0.00200784
35.6846,0.00182179
35.7346,0.00166044
35.7846,0.0015196
35.8346,0.00139593
35.8846,0.00128677
35.9346,0.00118992
35.9846,0.0011036
36.0346,0.00102635
36.0846,0.000956925
36.1346,0.000894313
36.1846,0.000837648
36.2346,0.000786203
36.2846,0.000739353
36.3346,0.000696569
36.3846,0.000657393
36.4346,0.000621431
36.4846,0.00058834
36.5346,0.000557823
36.5846,0.00052962
36.6346,0.000503502
36.6846,0.00047927
36.7346,0.000456745
36.7846,0.000435772
36.8346,0.00041621
36.8846,0.000397937
36.9346,0.000380841
36.9846,0.000364823
37.0346,0.000349795
37.0846,0.000335676
37.1346,0.000322395
37.1846,0.000309887
37.2346,0.000298093
37.2846,0.00028696
37.3346,0.000276439
37.3846,0.000266486
37.4346,0.000257061
37.4846,0.000248127
37.5346,0.000239651
37.5846,0.000231602
37.6346,0.000223951
37.6846,0.000216674
37.7346,0.000209745
37.7846,0.000203144
37.8346,0.000196849
37.8846,0.000190843
37.9346,0.000185107
37.9846,0.000179626
38.0346,0.000174385
38.0846,0.00016937
38.1346,0.000164568
38.1846,0.000159968
38.2346,0.000155557
38.2846,0.000151327
38.3346,0.000147267
38.3846,0.000143368
38.4346,0.000139622
38.4846,0.000136021
38.5346,0.000132557
38.5846,0.000129224
38.6346,0.000126015
38.6846,0.000122924
38.7346,0.000119946
38.7846,0.000117074
38.8346,0.000114305
38.8846,0.000111632
38.9346,0.000109052
38.9846,0.000106561
39.0346,0.000104154
39.0846,0.000101827
39.1346,9.9578e-05
39.1846,9.74024e-05
39.2346,9.52973e-05
39.2846,9.32597e-05
39.3346,9.12868e-05
39.3846,8.93758e-05
39.4346,8.75242e-05
39.4846,8.57296e-05
39.5346,8.39896e-05
39.5846,8.2302e-05
39.6346,8.06648e-05
39.6846,7.90759e-05
39.7346,7.75336e-05
39.7846,7.60359e-05
39.8346,7.45812e-05
39.8846,7.31679e-05
39.9346,7.17943e-05
39.9846,7.04591e-05
40.0346,6.91607e-05
40.0846,6.7898e-05
40.1346,6.66695e-05
40.1846,6.5474e-05
40.2346,6.43104e-05
40.2846,6.31776e-05
40.3346,6.20744e-05
40.3846,6.09999e-05
40.4346,5.9953e-05
40.4846,5.89328e-05
40.5346,5.79385e-05
40.5846,5.69691e-05
40.6346,5.60239e-05
40.6846,5.51019e-05
40.7346,5.42026e-05
40.7846,5.33251e-05
40.8346,5.24687e-05
40.8846,5.16328e-05
40.9346,5.08167e-05
40.9846,5.00198e-05
41.0346,4.92415e-05
41.0846,4.84812e-05
41.1346,4.77384e-05
41.1846,4.70126e-05
41.2346,4.63031e-05
41.2846,4.56096e-05
41.3346,4.49316e-05
41.3846,4.42686e-05
41.4346,4.36201e-05
41.4846,4.29858e-05
41.5346,4.23652e-05
41.5846,4.1758e-05
41.6346,4.11637e-05
41.6846,4.05821e-05
41.7346,4.00126e-05
41.7846,3.94551e-05
41.8346,3.89091e-05
41.8846,3.83744e-05
41.9346,3.78507e-05
41.9846,3.73376e-05
42.0346,3.68348e-05
42.0846,3.63422e-05
42.1346,3.58593e-05
42.1846,3.53861e-05
42.2346,3.49221e-05
42.2846,3.44672e-05
42.3346,3.40211e-05
42.3846,3.35836e-05
42.4346,3.31545e-05
42.4846,3.27336e-05
42.5346,3.23207e-05
42.5846,3.19155e-05
42.6346,3.15179e-05
42.6846,3.11276e-05
42.7346,3.07446e-05
42.7846,3.03686e-05
42.8346,2.99995e-05
42.8846,2.9637e-05
42.9346,2.92811e-05
42.9846,2.89315e-05
43.0346,2.85882e-05
43.0846,2.82509e-05
43.1346,2.79196e-05
43.1846,2.75941e-05
43.2346,2.72742e-05
43.2846,2.69599e-05
43.3346,2.66509e-05
43.3846,2.63473e-05
43.4346,2.60488e-05
43.4846,2.57553e-05
43.5346,2.54668e-05
43.5846,2.51831e-05
43.6346,2.49041e-05
43.6846,2.46298e-05
43.7346,2.43599e-05
43.7846,2.40944e-05
43.8346,2.38333e-05
43.8846,2.35764e-05
43.9346,2.33236e-05
43.9846,2.30749e-05
44.0346,2.28301e-05
44.0846,2.25892e-05
44.1346,2.23521e-05
44.1846,2.21186e-05
44.2346,2.18889e-05
44.2846,2.16627e-05
44.3346,2.144e-05
44.3846,2.12207e-05
44.4346,2.10047e-05
44.4846,2.0792e-05
44.5346,2.05826e-05
44.5846,2.03763e-05
44.6346,2.01731e-05
44.6846,1.99729e-05
44.7346,1.97756e-05
44.7846,1.95813e-05
44.8346,1.93898e-05
44.8846,1.92012e-05
44.9346,1.90152e-05
44.9846,1.8832e-05
45.0346,1.86514e-05
45.0846,1.84733e-05
45.1346,1.82978e-05
45.1846,1.81248e-05
45.2346,1.79543e-05
45.2846,1.77861e-05
45.3346,1.76203e-05
45.3846,1.74568e-05
45.4346,1.72956e-05
45.4846,1.71365e-05
45.5346,1.69797e-05
45.5846,1.6825e-05
45.6346,1.66724e-05
45.6846,1.65219e-05
45.7346,1.63734e-05
45.7846,1.62269e-05
45.8346,1.60824e-05
45.8846,1.59398e-05
45.9346,1.5799e-05
45.9846,1.56602e-05
46.0346,1.55231e-05
46.0846,1.53879e-05
46.1346,1.52544e-05
46.1846,1.51226e-05
46.2346,1.49925e-05
46.2846,1.48641e-05
46.3346,1.47374e-05
46.3846,1.46122e-05
46.4346,1.44887e-05
46.4846,1.43667e-05
46.5346,1.42462e-05
46.5846,1.41273e-05
46.6346,1.40098e-05
46.6846,1.38938e-05
46.7346,1.37792e-05
46.7846,1.36661e-05
46.8346,1.35543e-05
46.8846,1.34439e-05
46.9346,1.33348e-05
46.9846,1.32271e-05
47.0346,1.31206e-05
47.0846,1.30155e-05
47.1346,1.29116e-05
47.1846,1.28089e-05
47.2346,1.27075e-05
47.2846,1.26072e-05
47.3346,1.25082e-05
47.3846,1.24103e-05
47.4346,1.23135e-05
47.4846,1.22179e-05
47.5346,1.21234e-05
47.5846,1.20299e-05
47.6346,1.19376e-05
47.6846,1.18463e-05
47.7346,1.1756e-05
47.7846,1.16668e-05
47.8346,1.15786e-05
47.8846,1.14914e-05
47.9346,1.14052e-05
47.9846,1.13199e-05
48.0346,1.12356e-05
48.0846,1.11522e-05
48.1346,1.10698e-05
48.1846,1.09883e-05
48.2346,1.09076e-05
48.2846,1.08279e-05
48.3346,1.0749e-05
48.3846,1.0671e-05
48.4346,1.05938e-05
48.4846,1.05174e-05
48.5346,1.04419e-05
48.5846,1.03672e-05
48.6346,1.02933e-05
48.6846,1.02202e-05
48.7346,1.01478e-05
48.7846,1.00762e-05
48.8346,1.00054e-05
48.8846,9.93533e-06
48.9346,9.86598e-06
48.9846,9.79736e-06
49.0346,9.72945e-06
49.0846,9.66224e-06
49.1346,9.59572e-06
49.1846,9.52989e-06
49.2346,9.46474e-06
49.2846,9.40025e-06
49.3346,9.33642e-06
49.3846,9.27323e-06
49.4346,9.21069e-06
49.4846,9.14877e-06
49.5346,9.08748e-06
49.5846,9.0268e-06
49.6346,8.96673e-06
49.6846,8.90726e-06
49.7346,8.84837e-06
49.7846,8.79007e-06
49.8346,8.73234e-06
49.8846,8.67518e-06
49.9346,8.61858e-06
49.9846,8.56253e-06
50.0346,8.50702e-06
50.0846,8.45205e-06
50.1346,8.39762e-06
50.1846,8.34371e-06
50.2346,8.29031e-06
50.2846,8.23743e-06
50.3346,8.18505e-06
50.3846,8.13317e-06
50.4346,8.08178e-06
50.4846,8.03088e-06
50.5346,7.98045e-06
50.5846,7.9305e-06
50.6346,7.88102e-06
50.6846,7.83199e-06
50.7346,7.78343e-06
50.7846,7.73531e-06
50.8346,7.68764e-06
50.8846,7.64041e-06
50.9346,7.59361e-06
50.9846,7.54724e-06
51.0346,7.5013e-06
51.0846,7.45577e-06
51.1346,7.41066e-06
51.1846,7.36595e-06
51.2346,7.32165e-06
51.2846,7.27775e-06
51.3346,7.23424e-06
51.3846,7.19111e-06
51.4346,7.14838e-06
51.4846,7.10602e-06
51.5346,7.06404e-06
51.5846,7.02243e-06
51.6346,6.98118e-06
51.6846,6.9403e-06
51.7346,6.89978e-06
51.7846,6.85961e-06
51.8346,6.81979e-06
51.8846,6.78031e-06
51.9346,6.74118e-06
51.9846,6.70239e-06
52.0346,6.66393e-06
52.0846,6.6258e-06
52.1346,6.58799e-06
52.1846,6.55051e-06
52.2346,6.51335e-06
52.2846,6.4765e-06
52.3346,6.43996e-06
52.3846,6.40374e-06
52.4346,6.36781e-06
52.4846,6.33219e-06
52.5346,6.29687e-06
52.5846,6.26184e-06
52.6346,6.2271e-06
52.6846,6.19266e-06
52.7346,6.15849e-06
52.7846,6.12461e-06
52.8346,6.09101e-06
52.8846,6.05768e-06
52.9346,6.02463e-06
52.9846,5.99184e-06
53.0346,5.95933e-06
53.0846,5.92707e-06
53.1346,5.89508e-06
53.1846,5.86335e-06
53.2346,5.83187e-06
53.2846,5.80064e-06
53.3346,5.76967e-06
53.3846,5.73894e-06
53.4346,5.70845e-06
53.4846,5.67821e-06
53.5346,5.64821e-06
53.5846,5.61845e-06
53.6346,5.58892e-06
53.6846,5.55962e-06
53.7346,5.53055e-06
53.7846,5.50171e-06
53.8346,5.4731e-06
53.8846,5.44471e-06
53.9346,5.41653e-06
53.9846,5.38858e-06
54.0346,5.36084e-06
54.0846,5.33332e-06
54.1346,5.306e-06
54.1846,5.2789e-06
54.2346,5.252e-06
54.2846,5.22531e-06
54.3346,5.19882e-06
54.3846,5.17253e-06
54.4346,5.14644e-06
54.4846,5.12055e-06
54.5346,5.09486e-06
54.5846,5.06935e-06
54.6346,5.04404e-06
54.6846,5.01891e-06
54.7346,4.99398e-06
54.7846,4.96923e-06
54.8346,4.94466e-06
54.8846,4.92027e-06
54.9346,4.89607e-06
54.9846,4.87204e-06
55.0346,4.84819e-06
55.0846,4.82451e-06
55.1346,4.80101e-06
55.1846,4.77767e-06
55.2346,4.75451e-06
55.2846,4.73152e-06
55.3346,4.70869e-06
55.3846,4.68602e-06
55.4346,4.66352e-06
55.4846,4.64118e-06
55.5346,4.61901e-06
55.5846,4.59699e-06
55.6346,4.57512e-06
55.6846,4.55342e-06
55.7346,4.53186e-06
55.7846,4.51046e-06
55.8346,4.48921e-06
55.8846,4.46811e-06
55.9346,4.44716e-06
55.9846,4.42636e-06
56.0346,4.4057e-06
56.0846,4.38519e-06
56.1346,4.36482e-06
56.1846,4.34459e-06
56.2346,4.3245e-06
56.2846,4.30455e-06
56.3346,4.28473e-06
56.3846,4.26506e-06
56.4346,4.24552e-06
56.4846,4.22611e-06
56.5346,4.20684e-06
56.5846,4.18769e-06
56.6346,4.16868e-06
56.6846,4.1498e-06
56.7346,4.13104e-06
56.7846,4.11242e-06
56.8346,4.09391e-06
56.8846,4.07554e-06
56.9346,4.05728e-06
56.9846,4.03915e-06
57.0346,4.02114e-06
57.0846,4.00325e-06
57.1346,3.98548e-06
57.1846,3.96782e-06
57.2346,3.95029e-06
57.2846,3.93287e-06
57.3346,3.91556e-06
57.3846,3.89837e-06
57.4346,3.88129e-06
57.4846,3.86433e-06
57.5346,3.84747e-06
57.5846,3.83073e-06
57.6346,3.81409e-06
57.6846,3.79756e-06
57.7346,3.78114e-06
57.7846,3.76483e-06
57.8346,3.74862e-06
57.8846,3.73251e-06
57.9346,3.71651e-06
57.9846,3.70061e-06
58.0346,3.68482e-06
58.0846,3.66912e-06
58.1346,3.65352e-06
58.1846,3.63803e-06
58.2346,3.62263e-06
58.2846,3.60733e-06
58.3346,3.59213e-06
58.3846,3.57702e-06
58.4346,3.56201e-06
58.4846,3.54709e-06
58.5346,3.53226e-06
58.5846,3.51753e-06
58.6346,3.50289e-06
58.6846,3.48834e-06
58.7346,3.47388e-06
58.7846,3.45951e-06
58.8346,3.44523e-06
58.8846,3.43104e-06
58.9346,3.41694e-06
58.9846,3.40292e-06
59.0346,3.38899e-06
59.0846,3.37514e-06
59.1346,3.36138e-06
59.1846,3.3477e-06
59.2346,3.33411e-06
59.2846,3.3206e-06
59.3346,3.30717e-06
59.3846,3.29382e-06
59.4346,3.28055e-06
59.4846,3.26737e-06
59.5346,3.25426e-06
59.5846,3.24123e-06
59.6346,3.22828e-06
59.6846,3.2154e-06
59.7346,3.20261e-06
59.7846,3.18989e-06
59.8346,3.17724e-06
59.8846,3.16467e-06
59.9346,3.15218e-06
59.9846,3.13976e-06
60.0346,3.12741e-06
60.0846,3.11513e-06
60.1346,3.10293e-06
60.1846,3.0908e-06
60.2346,3.07873e-06
60.2846,3.06674e-06
60.3346,3.05482e-06
60.3846,3.04297e-06
60.4346,3.03119e-06
60.4846,3.01948e-06
60.5346,3.00783e-06
60.5846,2.99625e-06
60.6346,2.98474e-06
60.6846,2.97329e-06
60.7346,2.96191e-06
60.7846,2.9506e-06
60.8346,2.93935e-06
60.8846,2.92816e-06
60.9346,2.91704e-06
60.9846,2.90598e-06
61.0346,2.89498e-06
61.0846,2.88405e-06
61.1346,2.87318e-06
61.1846,2.86236e-06
61.2346,2.85161e-06
61.2846,2.84092e-06
61.3346,2.83029e-06
61.3846,2.81972e-06
61.4346,2.80921e-06
61.4846,2.79876e-06
61.5346,2.78837e-06
61.5846,2.77803e-06
61.6346,2.76775e-06
61.6846,2.75753e-06
61.7346,2.74736e-06
61.7846,2.73726e-06
61.8346,2.7272e-06
61.8846,2.7172e-06
61.9346,2.70726e-06
61.9846,2.69737e-06
62.0346,2.68754e-06
62.0846,2.67775e-06
62.1346,2.66803e-06
62.1846,2.65835e-06
62.2346,2.64873e-06
62.2846,2.63916e-06
62.3346,2.62964e-06
62.3846,2.62017e-06
62.4346,2.61076e-06
62.4846,2.60139e-06
62.5346,2.59208e-06
62.5846,2.58281e-06
62.6346,2.5736e-06
62.6846,2.56443e-06
62.7346,2.55531e-06
62.7846,2.54624e-06
62.8346,2.53722e-06
62.8846,2.52825e-06
62.9346,2.51932e-06
62.9846,2.51045e-06
63.0346,2.50161e-06
63.0846,2.49283e-06
63.1346,2.48409e-06
63.1846,2.4754e-06
63.2346,2.46675e-06
63.2846,2.45815e-06
63.3346,2.44959e-06
63.3846,2.44108e-06
63.4346,2.43261e-06
63.4846,2.42419e-06
63.5346,2.41581e-06
63.5846,2.40747e-06
63.6346,2.39918e-06
63.6846,2.39092e-06
63.7346,2.38272e-06
63.7846,2.37455e-06
63.8346,2.36642e-06
63.8846,2.35834e-06
63.9346,2.3503e-06
63.9846,2.3423e-06
64.0346,2.33434e-06
64.0846,2.32642e-06
64.1346,2.31854e-06
64.1846,2.3107e-06
64.2346,2.3029e-06
64.2846,2.29514e-06
64.3346,2.28742e-06
64.3846,2.27974e-06
64.4346,2.2721e-06
64.4846,2.26449e-06
64.5346,2.25692e-06
64.5846,2.24939e-06
64.6346,2.2419e-06
64.6846,2.23445e-06
64.7346,2.22703e-06
64.7846,2.21965e-06
64.8346,2.21231e-06
64.8846,2.205e-06
64.9346,2.19773e-06
64.9846,2.1905e-06
65.0346,2.1833e-06
65.0846,2.17613e-06
65.1346,2.169e-06
65.1846,2.16191e-06
65.2346,2.15485e-06
65.2846,2.14783e-06
65.3346,2.14084e-06
65.3846,2.13388e-06
65.4346,2.12696e-06
65.4846,2.12007e-06
65.5346,2.11321e-06
65.5846,2.10639e-06
65.6346,2.0996e-06
65.6846,2.09285e-06
65.7346,2.08612e-06
65.7846,2.07943e-06
65.8346,2.07277e-06
65.8846,2.06615e-06
65.9346,2.05955e-06
65.9846,2.05299e-06
66.0346,2.04645e-06
66.0846,2.03995e-06
66.1346,2.03348e-06
66.1846,2.02704e-06
66.2346,2.02063e-06
66.2846,2.01425e-06
66.3346,2.0079e-06
66.3846,2.00159e-06
66.4346,1.9953e-06
66.4846,1.98904e-06
66.5346,1.98281e-06
66.5846,1.97661e-06
66.6346,1.97043e-06
66.6846,1.96429e-06
66.7346,1.95818e-06
66.7846,1.95209e-06
66.8346,1.94603e-06
66.8846,1.94e-06
66.9346,1.934e-06
66.9846,1.92803e-06
67.0346,1.92208e-06
67.0846,1.91617e-06
67.1346,1.91027e-06
67.1846,1.90441e-06
67.2346,1.89857e-06
67.2846,1.89276e-06
67.3346,1.88698e-06
67.3846,1.88122e-06
67.4346,1.87549e-06
67.4846,1.86979e-06
67.5346,1.86411e-06
67.5846,1.85846e-06
67.6346,1.85283e-06
67.6846,1.84723e-06
67.7346,1.84165e-06
67.7846,1.8361e-06
67.8346,1.83057e-06
67.8846,1.82507e-06
67.9346,1.8196e-06
67.9846,1.81414e-06
68.0346,1.80872e-06
68.0846,1.80331e-06
68.1346,1.79794e-06
68.1846,1.79258e-06
68.2346,1.78725e-06
68.2846,1.78194e-06
68.3346,1.77666e-06
68.3846,1.7714e-06
68.4346,1.76616e-06
68.4846,1.76095e-06
68.5346,1.75576e-06
68.5846,1.75059e-06
68.6346,1.74545e-06
68.6846,1.74032e-06
68.7346,1.73522e-06
68.7846,1.73015e-06
68.8346,1.72509e-06
68.8846,1.72006e-06
68.9346,1.71505e-06
68.9846,1.71006e-06
69.0346,1.70509e-06
69.0846,1.70015e-06
69.1346,1.69522e-06
69.1846,1.69032e-06
69.2346,1.68544e-06
69.2846,1.68058e-06
69.3346,1.67574e-06
69.3846,1.67092e-06
69.4346,1.66612e-06
69.4846,1.66134e-06
69.5346,1.65659e-06
69.5846,1.65185e-06
69.6346,1.64714e-06
69.6846,1.64244e-06
69.7346,1.63776e-06
69.7846,1.63311e-06
69.8346,1.62847e-06
69.8846,1.62386e-06
69.9346,1.61926e-06
69.9846,1.61468e-06
70.0346,1.61012e-06
70.0846,1.60558e-06
70.1346,1.60107e-06
70.1846,1.59657e-06
70.2346,1.59208e-06
70.2846,1.58762e-06
70.3346,1.58318e-06
70.3846,1.57875e-06
70.4346,1.57435e-06
70.4846,1.56996e-06
70.5346,1.56559e-06
70.5846,1.56124e-06
70.6346,1.5569e-06
70.6846,1.55259e-06
70.7346,1.54829e-06
70.7846,1.54401e-06
70.8346,1.53975e-06
70.8846,1.5355e-06
70.9346,1.53128e-06
70.9846,1.52707e-06
71.0346,1.52287e-06
71.0846,1.5187e-06
71.1346,1.51454e-06
71.1846,1.5104e-06
71.2346,1.50628e-06
71.2846,1.50217e-06
71.3346,1.49808e-06
71.3846,1.49401e-06
71.4346,1.48995e-06
71.4846,1.48591e-06
71.5346,1.48188e-06
71.5846,1.47788e-06
71.6346,1.47389e-06
71.6846,1.46991e-06
71.7346,1.46595e-06
71.7846,1.46201e-06
71.8346,1.45808e-06
71.8846,1.45417e-06
71.9346,1.45027e-06
71.9846,1.44639e-06
72.0346,1.44253e-06
72.0846,1.43868e-06
72.1346,1.43485e-06
72.1846,1.43103e-06
72.2346,1.42722e-06
72.2846,1.42344e-06
72.3346,1.41966e-06
72.3846,1.4159e-06
72.4346,1.41216e-06
72.4846,1.40843e-06
72.5346,1.40472e-06
72.5846,1.40102e-06
72.6346,1.39734e-06
72.6846,1.39367e-06
72.7346,1.39001e-06
72.7846,1.38637e-06
72.8346,1.38274e-06
72.8846,1.37913e-06
72.9346,1.37553e-06
72.9846,1.37195e-06
73.0346,1.36838e-06
73.0846,1.36482e-06
73.1346,1.36128e-06
73.1846,1.35775e-06
73.2346,1.35423e-06
73.2846,1.35073e-06
73.3346,1.34725e-06
73.3846,1.34377e-06
73.4346,1.34031e-06
73.4846,1.33686e-06
73.5346,1.33343e-06
73.5846,1.33001e-06
73.6346,1.3266e-06
73.6846,1.3232e-06
73.7346,1.31982e-06