File: park_2003/1000_xrd/curve_2_fit.dat
33.3346,3.10391e-07
33.3846,3.11175e-07
33.4346,3.11962e-07
33.4846,3.12752e-07
33.5346,3.13545e-07
33.5846,3.14341e-07
33.6346,3.1514e-07
33.6846,3.15942e-07
33.7346,3.16747e-07
33.7846,3.17556e-07
33.8346,3.18367e-07
33.8846,3.19181e-07
33.9346,3.19999e-07
33.9846,3.2082e-07
34.0346,3.21643e-07
34.0846,3.2247e-07
34.1346,3.23301e-07
34.1846,3.24134e-07
34.2346,3.24971e-07
34.2846,3.25811e-07
34.3346,3.26654e-07
34.3846,3.275e-07
34.4346,3.2835e-07
34.4846,3.29203e-07
34.5346,3.30059e-07
34.5846,3.30919e-07
34.6346,3.31782e-07
34.6846,3.32649e-07
34.7346,3.33519e-07
34.7846,3.34392e-07
34.8346,3.35269e-07
34.8846,3.36149e-07
34.9346,3.37032e-07
34.9846,3.3792e-07
35.0346,3.3881e-07
35.0846,3.39704e-07
35.1346,3.40602e-07
35.1846,3.41503e-07
35.2346,3.42408e-07
35.2846,3.43317e-07
35.3346,3.44229e-07
35.3846,3.45144e-07
35.4346,3.46064e-07
35.4846,3.46987e-07
35.5346,3.47914e-07
35.5846,3.48844e-07
35.6346,3.49778e-07
35.6846,3.50716e-07
35.7346,3.51658e-07
35.7846,3.52604e-07
35.8346,3.53553e-07
35.8846,3.54506e-07
35.9346,3.55463e-07
35.9846,3.56424e-07
36.0346,3.57389e-07
36.0846,3.58358e-07
36.1346,3.5933e-07
36.1846,3.60307e-07
36.2346,3.61288e-07
36.2846,3.62272e-07
36.3346,3.63261e-07
36.3846,3.64254e-07
36.4346,3.65251e-07
36.4846,3.66252e-07
36.5346,3.67257e-07
36.5846,3.68266e-07
36.6346,3.69279e-07
36.6846,3.70297e-07
36.7346,3.71318e-07
36.7846,3.72344e-07
36.8346,3.73375e-07
36.8846,3.74409e-07
36.9346,3.75448e-07
36.9846,3.76491e-07
37.0346,3.77539e-07
37.0846,3.78591e-07
37.1346,3.79647e-07
37.1846,3.80708e-07
37.2346,3.81773e-07
37.2846,3.82843e-07
37.3346,3.83917e-07
37.3846,3.84995e-07
37.4346,3.86079e-07
37.4846,3.87166e-07
37.5346,3.88259e-07
37.5846,3.89356e-07
37.6346,3.90458e-07
37.6846,3.91564e-07
37.7346,3.92675e-07
37.7846,3.93791e-07
37.8346,3.94911e-07
37.8846,3.96037e-07
37.9346,3.97167e-07
37.9846,3.98302e-07
38.0346,3.99442e-07
38.0846,4.00587e-07
38.1346,4.01737e-07
38.1846,4.02891e-07
38.2346,4.04051e-07
38.2846,4.05216e-07
38.3346,4.06385e-07
38.3846,4.0756e-07
38.4346,4.0874e-07
38.4846,4.09925e-07
38.5346,4.11115e-07
38.5846,4.12311e-07
38.6346,4.13511e-07
38.6846,4.14717e-07
38.7346,4.15929e-07
38.7846,4.17145e-07
38.8346,4.18367e-07
38.8846,4.19594e-07
38.9346,4.20827e-07
38.9846,4.22065e-07
39.0346,4.23308e-07
39.0846,4.24557e-07
39.1346,4.25812e-07
39.1846,4.27072e-07
39.2346,4.28338e-07
39.2846,4.29609e-07
39.3346,4.30886e-07
39.3846,4.32169e-07
39.4346,4.33457e-07
39.4846,4.34751e-07
39.5346,4.36051e-07
39.5846,4.37357e-07
39.6346,4.38669e-07
39.6846,4.39987e-07
39.7346,4.4131e-07
39.7846,4.4264e-07
39.8346,4.43976e-07
39.8846,4.45317e-07
39.9346,4.46665e-07
39.9846,4.48019e-07
40.0346,4.49379e-07
40.0846,4.50745e-07
40.1346,4.52118e-07
40.1846,4.53496e-07
40.2346,4.54882e-07
40.2846,4.56273e-07
40.3346,4.57671e-07
40.3846,4.59075e-07
40.4346,4.60486e-07
40.4846,4.61903e-07
40.5346,4.63327e-07
40.5846,4.64757e-07
40.6346,4.66194e-07
40.6846,4.67638e-07
40.7346,4.69088e-07
40.7846,4.70546e-07
40.8346,4.7201e-07
40.8846,4.73481e-07
40.9346,4.74958e-07
40.9846,4.76443e-07
41.0346,4.77934e-07
41.0846,4.79433e-07
41.1346,4.80939e-07
41.1846,4.82452e-07
41.2346,4.83972e-07
41.2846,4.85499e-07
41.3346,4.87033e-07
41.3846,4.88575e-07
41.4346,4.90124e-07
41.4846,4.9168e-07
41.5346,4.93244e-07
41.5846,4.94815e-07
41.6346,4.96394e-07
41.6846,4.9798e-07
41.7346,4.99574e-07
41.7846,5.01176e-07
41.8346,5.02785e-07
41.8846,5.04402e-07
41.9346,5.06027e-07
41.9846,5.0766e-07
42.0346,5.09301e-07
42.0846,5.1095e-07
42.1346,5.12606e-07
42.1846,5.14271e-07
42.2346,5.15944e-07
42.2846,5.17625e-07
42.3346,5.19314e-07
42.3846,5.21012e-07
42.4346,5.22718e-07
42.4846,5.24432e-07
42.5346,5.26155e-07
42.5846,5.27886e-07
42.6346,5.29626e-07
42.6846,5.31374e-07
42.7346,5.33132e-07
42.7846,5.34897e-07
42.8346,5.36672e-07
42.8846,5.38456e-07
42.9346,5.40248e-07
42.9846,5.42049e-07
43.0346,5.4386e-07
43.0846,5.45679e-07
43.1346,5.47508e-07
43.1846,5.49345e-07
43.2346,5.51193e-07
43.2846,5.53049e-07
43.3346,5.54915e-07
43.3846,5.5679e-07
43.4346,5.58675e-07
43.4846,5.60569e-07
43.5346,5.62473e-07
43.5846,5.64387e-07
43.6346,5.6631e-07
43.6846,5.68244e-07
43.7346,5.70187e-07
43.7846,5.7214e-07
43.8346,5.74104e-07
43.8846,5.76077e-07
43.9346,5.78061e-07
43.9846,5.80055e-07
44.0346,5.82059e-07
44.0846,5.84074e-07
44.1346,5.86099e-07
44.1846,5.88134e-07
44.2346,5.90181e-07
44.2846,5.92238e-07
44.3346,5.94305e-07
44.3846,5.96384e-07
44.4346,5.98474e-07
44.4846,6.00574e-07
44.5346,6.02686e-07
44.5846,6.04808e-07
44.6346,6.06943e-07
44.6846,6.09088e-07
44.7346,6.11245e-07
44.7846,6.13413e-07
44.8346,6.15592e-07
44.8846,6.17784e-07
44.9346,6.19987e-07
44.9846,6.22202e-07
45.0346,6.24429e-07
45.0846,6.26668e-07
45.1346,6.28918e-07
45.1846,6.31181e-07
45.2346,6.33457e-07
45.2846,6.35744e-07
45.3346,6.38044e-07
45.3846,6.40357e-07
45.4346,6.42682e-07
45.4846,6.45019e-07
45.5346,6.4737e-07
45.5846,6.49733e-07
45.6346,6.5211e-07
45.6846,6.54499e-07
45.7346,6.56902e-07
45.7846,6.59318e-07
45.8346,6.61747e-07
45.8846,6.64189e-07
45.9346,6.66646e-07
45.9846,6.69115e-07
46.0346,6.71599e-07
46.0846,6.74096e-07
46.1346,6.76608e-07
46.1846,6.79133e-07
46.2346,6.81673e-07
46.2846,6.84227e-07
46.3346,6.86795e-07
46.3846,6.89378e-07
46.4346,6.91975e-07
46.4846,6.94587e-07
46.5346,6.97214e-07
46.5846,6.99856e-07
46.6346,7.02513e-07
46.6846,7.05185e-07
46.7346,7.07872e-07
46.7846,7.10575e-07
46.8346,7.13293e-07
46.8846,7.16027e-07
46.9346,7.18777e-07
46.9846,7.21542e-07
47.0346,7.24323e-07
47.0846,7.27121e-07
47.1346,7.29935e-07
47.1846,7.32765e-07
47.2346,7.35611e-07
47.2846,7.38475e-07
47.3346,7.41355e-07
47.3846,7.44252e-07
47.4346,7.47165e-07
47.4846,7.50097e-07
47.5346,7.53045e-07
47.5846,7.56011e-07
47.6346,7.58994e-07
47.6846,7.61995e-07
47.7346,7.65014e-07
47.7846,7.6805e-07
47.8346,7.71105e-07
47.8846,7.74179e-07
47.9346,7.7727e-07
47.9846,7.8038e-07
48.0346,7.83509e-07
48.0846,7.86657e-07
48.1346,7.89824e-07
48.1846,7.93009e-07
48.2346,7.96215e-07
48.2846,7.99439e-07
48.3346,8.02684e-07
48.3846,8.05948e-07
48.4346,8.09232e-07
48.4846,8.12536e-07
48.5346,8.1586e-07
48.5846,8.19205e-07
48.6346,8.2257e-07
48.6846,8.25957e-07
48.7346,8.29364e-07
48.7846,8.32792e-07
48.8346,8.36242e-07
48.8846,8.39713e-07
48.9346,8.43206e-07
48.9846,8.4672e-07
49.0346,8.50257e-07
49.0846,8.53816e-07
49.1346,8.57397e-07
49.1846,8.61001e-07
49.2346,8.64627e-07
49.2846,8.68277e-07
49.3346,8.7195e-07
49.3846,8.75646e-07
49.4346,8.79365e-07
49.4846,8.83109e-07
49.5346,8.86876e-07
49.5846,8.90667e-07
49.6346,8.94483e-07
49.6846,8.98323e-07
49.7346,9.02189e-07
49.7846,9.06079e-07
49.8346,9.09994e-07
49.8846,9.13935e-07
49.9346,9.17901e-07
49.9846,9.21894e-07
50.0346,9.25912e-07
50.0846,9.29957e-07
50.1346,9.34028e-07
50.1846,9.38126e-07
50.2346,9.42252e-07
50.2846,9.46404e-07
50.3346,9.50584e-07
50.3846,9.54792e-07
50.4346,9.59027e-07
50.4846,9.63291e-07
50.5346,9.67584e-07
50.5846,9.71905e-07
50.6346,9.76255e-07
50.6846,9.80635e-07
50.7346,9.85044e-07
50.7846,9.89482e-07
50.8346,9.93951e-07
50.8846,9.98451e-07
50.9346,1.00298e-06
50.9846,1.00754e-06
51.0346,1.01213e-06
51.0846,1.01676e-06
51.1346,1.02141e-06
51.1846,1.0261e-06
51.2346,1.03082e-06
51.2846,1.03557e-06
51.3346,1.04036e-06
51.3846,1.04517e-06
51.4346,1.05003e-06
51.4846,1.05491e-06
51.5346,1.05983e-06
51.5846,1.06479e-06
51.6346,1.06978e-06
51.6846,1.0748e-06
51.7346,1.07986e-06
51.7846,1.08496e-06
51.8346,1.09009e-06
51.8846,1.09526e-06
51.9346,1.10046e-06
51.9846,1.1057e-06
52.0346,1.11098e-06
52.0846,1.1163e-06
52.1346,1.12166e-06
52.1846,1.12705e-06
52.2346,1.13249e-06
52.2846,1.13796e-06
52.3346,1.14347e-06
52.3846,1.14902e-06
52.4346,1.15462e-06
52.4846,1.16025e-06
52.5346,1.16593e-06
52.5846,1.17165e-06
52.6346,1.17741e-06
52.6846,1.18321e-06
52.7346,1.18905e-06
52.7846,1.19494e-06
52.8346,1.20088e-06
52.8846,1.20685e-06
52.9346,1.21287e-06
52.9846,1.21894e-06
53.0346,1.22505e-06
53.0846,1.23121e-06
53.1346,1.23742e-06
53.1846,1.24367e-06
53.2346,1.24997e-06
53.2846,1.25632e-06
53.3346,1.26271e-06
53.3846,1.26916e-06
53.4346,1.27565e-06
53.4846,1.2822e-06
53.5346,1.28879e-06
53.5846,1.29544e-06
53.6346,1.30214e-06
53.6846,1.30889e-06
53.7346,1.31569e-06
53.7846,1.32254e-06
53.8346,1.32945e-06
53.8846,1.33642e-06
53.9346,1.34344e-06
53.9846,1.35051e-06
54.0346,1.35764e-06
54.0846,1.36483e-06
54.1346,1.37207e-06
54.1846,1.37937e-06
54.2346,1.38673e-06
54.2846,1.39415e-06
54.3346,1.40163e-06
54.3846,1.40917e-06
54.4346,1.41677e-06
54.4846,1.42443e-06
54.5346,1.43215e-06
54.5846,1.43994e-06
54.6346,1.44779e-06
54.6846,1.45571e-06
54.7346,1.46369e-06
54.7846,1.47173e-06
54.8346,1.47984e-06
54.8846,1.48802e-06
54.9346,1.49627e-06
54.9846,1.50459e-06
55.0346,1.51297e-06
55.0846,1.52143e-06
55.1346,1.52996e-06
55.1846,1.53856e-06
55.2346,1.54723e-06
55.2846,1.55597e-06
55.3346,1.56479e-06
55.3846,1.57369e-06
55.4346,1.58266e-06
55.4846,1.59171e-06
55.5346,1.60083e-06
55.5846,1.61004e-06
55.6346,1.61932e-06
55.6846,1.62869e-06
55.7346,1.63813e-06
55.7846,1.64766e-06
55.8346,1.65727e-06
55.8846,1.66697e-06
55.9346,1.67675e-06
55.9846,1.68662e-06
56.0346,1.69657e-06
56.0846,1.70662e-06
56.1346,1.71675e-06
56.1846,1.72698e-06
56.2346,1.73729e-06
56.2846,1.7477e-06
56.3346,1.7582e-06
56.3846,1.7688e-06
56.4346,1.77949e-06
56.4846,1.79028e-06
56.5346,1.80117e-06
56.5846,1.81216e-06
56.6346,1.82325e-06
56.6846,1.83444e-06
56.7346,1.84573e-06
56.7846,1.85713e-06
56.8346,1.86864e-06
56.8846,1.88025e-06
56.9346,1.89197e-06
56.9846,1.9038e-06
57.0346,1.91574e-06
57.0846,1.9278e-06
57.1346,1.93997e-06
57.1846,1.95225e-06
57.2346,1.96465e-06
57.2846,1.97717e-06
57.3346,1.98981e-06
57.3846,2.00258e-06
57.4346,2.01546e-06
57.4846,2.02847e-06
57.5346,2.04161e-06
57.5846,2.05487e-06
57.6346,2.06826e-06
57.6846,2.08179e-06
57.7346,2.09545e-06
57.7846,2.10924e-06
57.8346,2.12317e-06
57.8846,2.13724e-06
57.9346,2.15145e-06
57.9846,2.1658e-06
58.0346,2.18029e-06
58.0846,2.19493e-06
58.1346,2.20972e-06
58.1846,2.22466e-06
58.2346,2.23975e-06
58.2846,2.255e-06
58.3346,2.2704e-06
58.3846,2.28596e-06
58.4346,2.30168e-06
58.4846,2.31756e-06
58.5346,2.33361e-06
58.5846,2.34982e-06
58.6346,2.36621e-06
58.6846,2.38276e-06
58.7346,2.39949e-06
58.7846,2.4164e-06
58.8346,2.43349e-06
58.8846,2.45075e-06
58.9346,2.46821e-06
58.9846,2.48585e-06
59.0346,2.50368e-06
59.0846,2.5217e-06
59.1346,2.53992e-06
59.1846,2.55833e-06
59.2346,2.57695e-06
59.2846,2.59577e-06
59.3346,2.6148e-06
59.3846,2.63404e-06
59.4346,2.65349e-06
59.4846,2.67315e-06
59.5346,2.69304e-06
59.5846,2.71315e-06
59.6346,2.73349e-06
59.6846,2.75405e-06
59.7346,2.77485e-06
59.7846,2.79588e-06
59.8346,2.81716e-06
59.8846,2.83867e-06
59.9346,2.86044e-06
59.9846,2.88246e-06
60.0346,2.90473e-06
60.0846,2.92726e-06
60.1346,2.95005e-06
60.1846,2.97312e-06
60.2346,2.99645e-06
60.2846,3.02006e-06
60.3346,3.04395e-06
60.3846,3.06812e-06
60.4346,3.09258e-06
60.4846,3.11734e-06
60.5346,3.14239e-06
60.5846,3.16775e-06
60.6346,3.19342e-06
60.6846,3.2194e-06
60.7346,3.24569e-06
60.7846,3.27231e-06
60.8346,3.29926e-06
60.8846,3.32655e-06
60.9346,3.35417e-06
60.9846,3.38214e-06
61.0346,3.41046e-06
61.0846,3.43914e-06
61.1346,3.46818e-06
61.1846,3.49759e-06
61.2346,3.52738e-06
61.2846,3.55755e-06
61.3346,3.58811e-06
61.3846,3.61906e-06
61.4346,3.65041e-06
61.4846,3.68218e-06
61.5346,3.71436e-06
61.5846,3.74696e-06
61.6346,3.78e-06
61.6846,3.81347e-06
61.7346,3.84739e-06
61.7846,3.88177e-06
61.8346,3.91661e-06
61.8846,3.95191e-06
61.9346,3.9877e-06
61.9846,4.02398e-06
62.0346,4.06076e-06
62.0846,4.09804e-06
62.1346,4.13583e-06
62.1846,4.17415e-06
62.2346,4.21301e-06
62.2846,4.25241e-06
62.3346,4.29237e-06
62.3846,4.33289e-06
62.4346,4.37399e-06
62.4846,4.41568e-06
62.5346,4.45797e-06
62.5846,4.50086e-06
62.6346,4.54438e-06
62.6846,4.58853e-06
62.7346,4.63333e-06
62.7846,4.67879e-06
62.8346,4.72492e-06
62.8846,4.77174e-06
62.9346,4.81925e-06
62.9846,4.86748e-06
63.0346,4.91644e-06
63.0846,4.96614e-06
63.1346,5.01659e-06
63.1846,5.06782e-06
63.2346,5.11984e-06
63.2846,5.17266e-06
63.3346,5.22631e-06
63.3846,5.28079e-06
63.4346,5.33613e-06
63.4846,5.39234e-06
63.5346,5.44945e-06
63.5846,5.50747e-06
63.6346,5.56642e-06
63.6846,5.62632e-06
63.7346,5.68719e-06
63.7846,5.74906e-06
63.8346,5.81194e-06
63.8846,5.87586e-06
63.9346,5.94084e-06
63.9846,6.00691e-06
64.0346,6.07408e-06
64.0846,6.14238e-06
64.1346,6.21184e-06
64.1846,6.28249e-06
64.2346,6.35435e-06
64.2846,6.42745e-06
64.3346,6.50182e-06
64.3846,6.57749e-06
64.4346,6.65448e-06
64.4846,6.73283e-06
64.5346,6.81258e-06
64.5846,6.89375e-06
64.6346,6.97638e-06
64.6846,7.06051e-06
64.7346,7.14617e-06
64.7846,7.23339e-06
64.8346,7.32222e-06
64.8846,7.4127e-06
64.9346,7.50486e-06
64.9846,7.59876e-06
65.0346,7.69443e-06
65.0846,7.79191e-06
65.1346,7.89126e-06
65.1846,7.99252e-06
65.2346,8.09574e-06
65.2846,8.20098e-06
65.3346,8.30828e-06
65.3846,8.4177e-06
65.4346,8.5293e-06
65.4846,8.64313e-06
65.5346,8.75925e-06
65.5846,8.87773e-06
65.6346,8.99863e-06
65.6846,9.12201e-06
65.7346,9.24795e-06
65.7846,9.37652e-06
65.8346,9.50779e-06
65.8846,9.64183e-06
65.9346,9.77872e-06
65.9846,9.91856e-06
66.0346,1.00614e-05
66.0846,1.02074e-05
66.1346,1.03565e-05
66.1846,1.0509e-05
66.2346,1.06648e-05
66.2846,1.08242e-05
66.3346,1.09871e-05
66.3846,1.11537e-05
66.4346,1.13242e-05
66.4846,1.14986e-05
66.5346,1.1677e-05
66.5846,1.18597e-05
66.6346,1.20466e-05
66.6846,1.22381e-05
66.7346,1.24341e-05
66.7846,1.26348e-05
66.8346,1.28405e-05
66.8846,1.30512e-05
66.9346,1.32672e-05
66.9846,1.34885e-05
67.0346,1.37155e-05
67.0846,1.39482e-05
67.1346,1.41869e-05
67.1846,1.44317e-05
67.2346,1.4683e-05
67.2846,1.49409e-05
67.3346,1.52056e-05
67.3846,1.54775e-05
67.4346,1.57566e-05
67.4846,1.60434e-05
67.5346,1.63382e-05
67.5846,1.66411e-05
67.6346,1.69525e-05
67.6846,1.72727e-05
67.7346,1.76021e-05
67.7846,1.79409e-05
67.8346,1.82897e-05
67.8846,1.86488e-05
67.9346,1.90185e-05
67.9846,1.93993e-05
68.0346,1.97917e-05
68.0846,2.0196e-05
68.1346,2.0613e-05
68.1846,2.10429e-05
68.2346,2.14864e-05
68.2846,2.19442e-05
68.3346,2.24166e-05
68.3846,2.29046e-05
68.4346,2.34086e-05
68.4846,2.39294e-05
68.5346,2.44678e-05
68.5846,2.50246e-05
68.6346,2.56006e-05
68.6846,2.61967e-05
68.7346,2.68138e-05
68.7846,2.7453e-05
68.8346,2.81154e-05
68.8846,2.8802e-05
68.9346,2.9514e-05
68.9846,3.02528e-05
69.0346,3.10197e-05
69.0846,3.18161e-05
69.1346,3.26435e-05
69.1846,3.35036e-05
69.2346,3.43982e-05
69.2846,3.53291e-05
69.3346,3.62982e-05
69.3846,3.73078e-05
69.4346,3.83601e-05
69.4846,3.94575e-05
69.5346,4.06026e-05
69.5846,4.17983e-05
69.6346,4.30476e-05
69.6846,4.43538e-05
69.7346,4.57202e-05
69.7846,4.71508e-05
69.8346,4.86495e-05
69.8846,5.02208e-05
69.9346,5.18694e-05
69.9846,5.36005e-05
70.0346,5.54197e-05
70.0846,5.7333e-05
70.1346,5.93471e-05
70.1846,6.14691e-05
70.2346,6.3707e-05
70.2846,6.60692e-05
70.3346,6.85651e-05
70.3846,7.12052e-05
70.4346,7.40005e-05
70.4846,7.69636e-05
70.5346,8.01081e-05
70.5846,8.34492e-05
70.6346,8.70035e-05
70.6846,9.07897e-05
70.7346,9.48281e-05
70.7846,9.91418e-05
70.8346,0.000103756
70.8846,0.0001087
70.9346,0.000114006
70.9846,0.000119709
71.0346,0.00012585
71.0846,0.000132476
71.1346,0.000139638
71.1846,0.000147396
71.2346,0.000155818
71.2846,0.000164982
71.3346,0.000174976
71.3846,0.000185905
71.4346,0.000197889
71.4846,0.000211067
71.5346,0.000225602
71.5846,0.000241689
71.6346,0.000259554
71.6846,0.000279469
71.7346,0.000301759
71.7846,0.000326816
71.8346,0.000355115
71.8846,0.000387238
71.9346,0.000423902
71.9846,0.000466002
72.0346,0.00051466
72.0846,0.000571302
72.1346,0.000637763
72.1846,0.000716429
72.2346,0.00081045
72.2846,0.000924052
72.3346,0.001063
72.3846,0.0012353
72.4346,0.00145234
72.4846,0.00173069
72.5346,0.0020951
72.5846,0.0025837
72.6346,0.00325715
72.6846,0.0042153
72.7346,0.00562801
72.7846,0.0077898
72.8346,0.011198
72.8846,0.0165377
72.9346,0.023882
72.9846,0.0298371
73.0346,0.0282514
73.0846,0.0210457
73.1346,0.0143116
73.1846,0.00975907
73.2346,0.00688219
73.2846,0.00504097
73.3346,0.00382139
73.3846,0.002983
73.4346,0.00238652
73.4846,0.00194915
73.5346,0.00161994
73.5846,0.00136648
73.6346,0.00116748
73.6846,0.00100855
73.7346,0.000879707