File: park_2003/1000_xrd/curve_total_fit.dat
33.3346,0.921195
33.3846,0.921293
33.4346,0.921403
33.4846,0.921527
33.5346,0.921669
33.5846,0.921832
33.6346,0.922019
33.6846,0.922237
33.7346,0.922492
33.7846,0.922793
33.8346,0.923153
33.8846,0.923586
33.9346,0.924115
33.9846,0.92477
34.0346,0.925595
34.0846,0.926653
34.1346,0.928042
34.1846,0.929913
34.2346,0.932518
34.2846,0.936294
34.3346,0.942059
34.3846,0.951473
34.4346,0.968332
34.4846,1.00274
34.5346,1.08783
34.5846,1.35311
34.6346,1.79929
34.6846,1.32925
34.7346,1.08058
34.7846,1.00007
34.8346,0.967105
34.8846,0.95082
34.9346,0.941673
34.9846,0.936048
35.0346,0.932351
35.0846,0.929795
35.1346,0.927956
35.1846,0.926589
35.2346,0.925545
35.2846,0.924731
35.3346,0.924084
35.3846,0.92356
35.4346,0.923131
35.4846,0.922776
35.5346,0.922477
35.5846,0.922224
35.6346,0.922008
35.6846,0.921822
35.7346,0.921661
35.7846,0.92152
35.8346,0.921396
35.8846,0.921287
35.9346,0.92119
35.9846,0.921104
36.0346,0.921027
36.0846,0.920957
36.1346,0.920895
36.1846,0.920838
36.2346,0.920787
36.2846,0.92074
36.3346,0.920697
36.3846,0.920658
36.4346,0.920622
36.4846,0.920589
36.5346,0.920558
36.5846,0.92053
36.6346,0.920504
36.6846,0.92048
36.7346,0.920457
36.7846,0.920436
36.8346,0.920417
36.8846,0.920398
36.9346,0.920381
36.9846,0.920365
37.0346,0.92035
37.0846,0.920336
37.1346,0.920323
37.1846,0.92031
37.2346,0.920298
37.2846,0.920287
37.3346,0.920277
37.3846,0.920267
37.4346,0.920257
37.4846,0.920249
37.5346,0.92024
37.5846,0.920232
37.6346,0.920224
37.6846,0.920217
37.7346,0.92021
37.7846,0.920204
37.8346,0.920197
37.8846,0.920191
37.9346,0.920186
37.9846,0.92018
38.0346,0.920175
38.0846,0.92017
38.1346,0.920165
38.1846,0.92016
38.2346,0.920156
38.2846,0.920152
38.3346,0.920148
38.3846,0.920144
38.4346,0.92014
38.4846,0.920136
38.5346,0.920133
38.5846,0.92013
38.6346,0.920126
38.6846,0.920123
38.7346,0.92012
38.7846,0.920117
38.8346,0.920115
38.8846,0.920112
38.9346,0.920109
38.9846,0.920107
39.0346,0.920105
39.0846,0.920102
39.1346,0.9201
39.1846,0.920098
39.2346,0.920096
39.2846,0.920094
39.3346,0.920092
39.3846,0.92009
39.4346,0.920088
39.4846,0.920086
39.5346,0.920084
39.5846,0.920083
39.6346,0.920081
39.6846,0.92008
39.7346,0.920078
39.7846,0.920076
39.8346,0.920075
39.8846,0.920074
39.9346,0.920072
39.9846,0.920071
40.0346,0.92007
40.0846,0.920068
40.1346,0.920067
40.1846,0.920066
40.2346,0.920065
40.2846,0.920064
40.3346,0.920063
40.3846,0.920061
40.4346,0.92006
40.4846,0.920059
40.5346,0.920058
40.5846,0.920057
40.6346,0.920056
40.6846,0.920056
40.7346,0.920055
40.7846,0.920054
40.8346,0.920053
40.8846,0.920052
40.9346,0.920051
40.9846,0.92005
41.0346,0.92005
41.0846,0.920049
41.1346,0.920048
41.1846,0.920047
41.2346,0.920047
41.2846,0.920046
41.3346,0.920045
41.3846,0.920045
41.4346,0.920044
41.4846,0.920043
41.5346,0.920043
41.5846,0.920042
41.6346,0.920042
41.6846,0.920041
41.7346,0.920041
41.7846,0.92004
41.8346,0.920039
41.8846,0.920039
41.9346,0.920038
41.9846,0.920038
42.0346,0.920037
42.0846,0.920037
42.1346,0.920036
42.1846,0.920036
42.2346,0.920035
42.2846,0.920035
42.3346,0.920035
42.3846,0.920034
42.4346,0.920034
42.4846,0.920033
42.5346,0.920033
42.5846,0.920032
42.6346,0.920032
42.6846,0.920032
42.7346,0.920031
42.7846,0.920031
42.8346,0.920031
42.8846,0.92003
42.9346,0.92003
42.9846,0.920029
43.0346,0.920029
43.0846,0.920029
43.1346,0.920028
43.1846,0.920028
43.2346,0.920028
43.2846,0.920028
43.3346,0.920027
43.3846,0.920027
43.4346,0.920027
43.4846,0.920026
43.5346,0.920026
43.5846,0.920026
43.6346,0.920025
43.6846,0.920025
43.7346,0.920025
43.7846,0.920025
43.8346,0.920024
43.8846,0.920024
43.9346,0.920024
43.9846,0.920024
44.0346,0.920023
44.0846,0.920023
44.1346,0.920023
44.1846,0.920023
44.2346,0.920022
44.2846,0.920022
44.3346,0.920022
44.3846,0.920022
44.4346,0.920022
44.4846,0.920021
44.5346,0.920021
44.5846,0.920021
44.6346,0.920021
44.6846,0.920021
44.7346,0.92002
44.7846,0.92002
44.8346,0.92002
44.8846,0.92002
44.9346,0.92002
44.9846,0.920019
45.0346,0.920019
45.0846,0.920019
45.1346,0.920019
45.1846,0.920019
45.2346,0.920019
45.2846,0.920018
45.3346,0.920018
45.3846,0.920018
45.4346,0.920018
45.4846,0.920018
45.5346,0.920018
45.5846,0.920017
45.6346,0.920017
45.6846,0.920017
45.7346,0.920017
45.7846,0.920017
45.8346,0.920017
45.8846,0.920017
45.9346,0.920016
45.9846,0.920016
46.0346,0.920016
46.0846,0.920016
46.1346,0.920016
46.1846,0.920016
46.2346,0.920016
46.2846,0.920016
46.3346,0.920015
46.3846,0.920015
46.4346,0.920015
46.4846,0.920015
46.5346,0.920015
46.5846,0.920015
46.6346,0.920015
46.6846,0.920015
46.7346,0.920014
46.7846,0.920014
46.8346,0.920014
46.8846,0.920014
46.9346,0.920014
46.9846,0.920014
47.0346,0.920014
47.0846,0.920014
47.1346,0.920014
47.1846,0.920014
47.2346,0.920013
47.2846,0.920013
47.3346,0.920013
47.3846,0.920013
47.4346,0.920013
47.4846,0.920013
47.5346,0.920013
47.5846,0.920013
47.6346,0.920013
47.6846,0.920013
47.7346,0.920013
47.7846,0.920012
47.8346,0.920012
47.8846,0.920012
47.9346,0.920012
47.9846,0.920012
48.0346,0.920012
48.0846,0.920012
48.1346,0.920012
48.1846,0.920012
48.2346,0.920012
48.2846,0.920012
48.3346,0.920012
48.3846,0.920011
48.4346,0.920011
48.4846,0.920011
48.5346,0.920011
48.5846,0.920011
48.6346,0.920011
48.6846,0.920011
48.7346,0.920011
48.7846,0.920011
48.8346,0.920011
48.8846,0.920011
48.9346,0.920011
48.9846,0.920011
49.0346,0.920011
49.0846,0.920011
49.1346,0.92001
49.1846,0.92001
49.2346,0.92001
49.2846,0.92001
49.3346,0.92001
49.3846,0.92001
49.4346,0.92001
49.4846,0.92001
49.5346,0.92001
49.5846,0.92001
49.6346,0.92001
49.6846,0.92001
49.7346,0.92001
49.7846,0.92001
49.8346,0.92001
49.8846,0.92001
49.9346,0.92001
49.9846,0.920009
50.0346,0.920009
50.0846,0.920009
50.1346,0.920009
50.1846,0.920009
50.2346,0.920009
50.2846,0.920009
50.3346,0.920009
50.3846,0.920009
50.4346,0.920009
50.4846,0.920009
50.5346,0.920009
50.5846,0.920009
50.6346,0.920009
50.6846,0.920009
50.7346,0.920009
50.7846,0.920009
50.8346,0.920009
50.8846,0.920009
50.9346,0.920009
50.9846,0.920009
51.0346,0.920009
51.0846,0.920008
51.1346,0.920008
51.1846,0.920008
51.2346,0.920008
51.2846,0.920008
51.3346,0.920008
51.3846,0.920008
51.4346,0.920008
51.4846,0.920008
51.5346,0.920008
51.5846,0.920008
51.6346,0.920008
51.6846,0.920008
51.7346,0.920008
51.7846,0.920008
51.8346,0.920008
51.8846,0.920008
51.9346,0.920008
51.9846,0.920008
52.0346,0.920008
52.0846,0.920008
52.1346,0.920008
52.1846,0.920008
52.2346,0.920008
52.2846,0.920008
52.3346,0.920008
52.3846,0.920008
52.4346,0.920008
52.4846,0.920007
52.5346,0.920007
52.5846,0.920007
52.6346,0.920007
52.6846,0.920007
52.7346,0.920007
52.7846,0.920007
52.8346,0.920007
52.8846,0.920007
52.9346,0.920007
52.9846,0.920007
53.0346,0.920007
53.0846,0.920007
53.1346,0.920007
53.1846,0.920007
53.2346,0.920007
53.2846,0.920007
53.3346,0.920007
53.3846,0.920007
53.4346,0.920007
53.4846,0.920007
53.5346,0.920007
53.5846,0.920007
53.6346,0.920007
53.6846,0.920007
53.7346,0.920007
53.7846,0.920007
53.8346,0.920007
53.8846,0.920007
53.9346,0.920007
53.9846,0.920007
54.0346,0.920007
54.0846,0.920007
54.1346,0.920007
54.1846,0.920007
54.2346,0.920007
54.2846,0.920007
54.3346,0.920007
54.3846,0.920007
54.4346,0.920007
54.4846,0.920007
54.5346,0.920007
54.5846,0.920007
54.6346,0.920006
54.6846,0.920006
54.7346,0.920006
54.7846,0.920006
54.8346,0.920006
54.8846,0.920006
54.9346,0.920006
54.9846,0.920006
55.0346,0.920006
55.0846,0.920006
55.1346,0.920006
55.1846,0.920006
55.2346,0.920006
55.2846,0.920006
55.3346,0.920006
55.3846,0.920006
55.4346,0.920006
55.4846,0.920006
55.5346,0.920006
55.5846,0.920006
55.6346,0.920006
55.6846,0.920006
55.7346,0.920006
55.7846,0.920006
55.8346,0.920006
55.8846,0.920006
55.9346,0.920006
55.9846,0.920006
56.0346,0.920006
56.0846,0.920006
56.1346,0.920006
56.1846,0.920006
56.2346,0.920006
56.2846,0.920006
56.3346,0.920006
56.3846,0.920006
56.4346,0.920006
56.4846,0.920006
56.5346,0.920006
56.5846,0.920006
56.6346,0.920006
56.6846,0.920006
56.7346,0.920006
56.7846,0.920006
56.8346,0.920006
56.8846,0.920006
56.9346,0.920006
56.9846,0.920006
57.0346,0.920006
57.0846,0.920006
57.1346,0.920006
57.1846,0.920006
57.2346,0.920006
57.2846,0.920006
57.3346,0.920006
57.3846,0.920006
57.4346,0.920006
57.4846,0.920006
57.5346,0.920006
57.5846,0.920006
57.6346,0.920006
57.6846,0.920006
57.7346,0.920006
57.7846,0.920006
57.8346,0.920006
57.8846,0.920006
57.9346,0.920006
57.9846,0.920006
58.0346,0.920006
58.0846,0.920006
58.1346,0.920006
58.1846,0.920006
58.2346,0.920006
58.2846,0.920006
58.3346,0.920006
58.3846,0.920006
58.4346,0.920006
58.4846,0.920006
58.5346,0.920006
58.5846,0.920006
58.6346,0.920006
58.6846,0.920006
58.7346,0.920006
58.7846,0.920006
58.8346,0.920006
58.8846,0.920006
58.9346,0.920006
58.9846,0.920006
59.0346,0.920006
59.0846,0.920006
59.1346,0.920006
59.1846,0.920006
59.2346,0.920006
59.2846,0.920006
59.3346,0.920006
59.3846,0.920006
59.4346,0.920006
59.4846,0.920006
59.5346,0.920006
59.5846,0.920006
59.6346,0.920006
59.6846,0.920006
59.7346,0.920006
59.7846,0.920006
59.8346,0.920006
59.8846,0.920006
59.9346,0.920006
59.9846,0.920006
60.0346,0.920006
60.0846,0.920006
60.1346,0.920006
60.1846,0.920006
60.2346,0.920006
60.2846,0.920006
60.3346,0.920006
60.3846,0.920006
60.4346,0.920006
60.4846,0.920006
60.5346,0.920006
60.5846,0.920006
60.6346,0.920006
60.6846,0.920006
60.7346,0.920006
60.7846,0.920006
60.8346,0.920006
60.8846,0.920006
60.9346,0.920006
60.9846,0.920006
61.0346,0.920006
61.0846,0.920006
61.1346,0.920006
61.1846,0.920006
61.2346,0.920006
61.2846,0.920006
61.3346,0.920006
61.3846,0.920006
61.4346,0.920006
61.4846,0.920006
61.5346,0.920007
61.5846,0.920007
61.6346,0.920007
61.6846,0.920007
61.7346,0.920007
61.7846,0.920007
61.8346,0.920007
61.8846,0.920007
61.9346,0.920007
61.9846,0.920007
62.0346,0.920007
62.0846,0.920007
62.1346,0.920007
62.1846,0.920007
62.2346,0.920007
62.2846,0.920007
62.3346,0.920007
62.3846,0.920007
62.4346,0.920007
62.4846,0.920007
62.5346,0.920007
62.5846,0.920007
62.6346,0.920007
62.6846,0.920007
62.7346,0.920007
62.7846,0.920007
62.8346,0.920007
62.8846,0.920007
62.9346,0.920007
62.9846,0.920007
63.0346,0.920007
63.0846,0.920007
63.1346,0.920008
63.1846,0.920008
63.2346,0.920008
63.2846,0.920008
63.3346,0.920008
63.3846,0.920008
63.4346,0.920008
63.4846,0.920008
63.5346,0.920008
63.5846,0.920008
63.6346,0.920008
63.6846,0.920008
63.7346,0.920008
63.7846,0.920008
63.8346,0.920008
63.8846,0.920008
63.9346,0.920008
63.9846,0.920008
64.0346,0.920008
64.0846,0.920008
64.1346,0.920009
64.1846,0.920009
64.2346,0.920009
64.2846,0.920009
64.3346,0.920009
64.3846,0.920009
64.4346,0.920009
64.4846,0.920009
64.5346,0.920009
64.5846,0.920009
64.6346,0.920009
64.6846,0.920009
64.7346,0.920009
64.7846,0.920009
64.8346,0.92001
64.8846,0.92001
64.9346,0.92001
64.9846,0.92001
65.0346,0.92001
65.0846,0.92001
65.1346,0.92001
65.1846,0.92001
65.2346,0.92001
65.2846,0.92001
65.3346,0.92001
65.3846,0.920011
65.4346,0.920011
65.4846,0.920011
65.5346,0.920011
65.5846,0.920011
65.6346,0.920011
65.6846,0.920011
65.7346,0.920011
65.7846,0.920011
65.8346,0.920012
65.8846,0.920012
65.9346,0.920012
65.9846,0.920012
66.0346,0.920012
66.0846,0.920012
66.1346,0.920012
66.1846,0.920013
66.2346,0.920013
66.2846,0.920013
66.3346,0.920013
66.3846,0.920013
66.4346,0.920013
66.4846,0.920013
66.5346,0.920014
66.5846,0.920014
66.6346,0.920014
66.6846,0.920014
66.7346,0.920014
66.7846,0.920015
66.8346,0.920015
66.8846,0.920015
66.9346,0.920015
66.9846,0.920015
67.0346,0.920016
67.0846,0.920016
67.1346,0.920016
67.1846,0.920016
67.2346,0.920017
67.2846,0.920017
67.3346,0.920017
67.3846,0.920017
67.4346,0.920018
67.4846,0.920018
67.5346,0.920018
67.5846,0.920018
67.6346,0.920019
67.6846,0.920019
67.7346,0.920019
67.7846,0.92002
67.8346,0.92002
67.8846,0.92002
67.9346,0.920021
67.9846,0.920021
68.0346,0.920022
68.0846,0.920022
68.1346,0.920022
68.1846,0.920023
68.2346,0.920023
68.2846,0.920024
68.3346,0.920024
68.3846,0.920025
68.4346,0.920025
68.4846,0.920026
68.5346,0.920026
68.5846,0.920027
68.6346,0.920027
68.6846,0.920028
68.7346,0.920029
68.7846,0.920029
68.8346,0.92003
68.8846,0.920031
68.9346,0.920031
68.9846,0.920032
69.0346,0.920033
69.0846,0.920034
69.1346,0.920034
69.1846,0.920035
69.2346,0.920036
69.2846,0.920037
69.3346,0.920038
69.3846,0.920039
69.4346,0.92004
69.4846,0.920041
69.5346,0.920042
69.5846,0.920043
69.6346,0.920045
69.6846,0.920046
69.7346,0.920047
69.7846,0.920049
69.8346,0.92005
69.8846,0.920052
69.9346,0.920053
69.9846,0.920055
70.0346,0.920057
70.0846,0.920059
70.1346,0.920061
70.1846,0.920063
70.2346,0.920065
70.2846,0.920068
70.3346,0.92007
70.3846,0.920073
70.4346,0.920076
70.4846,0.920079
70.5346,0.920082
70.5846,0.920085
70.6346,0.920089
70.6846,0.920092
70.7346,0.920096
70.7846,0.920101
70.8346,0.920105
70.8846,0.92011
70.9346,0.920116
70.9846,0.920121
71.0346,0.920127
71.0846,0.920134
71.1346,0.920141
71.1846,0.920149
71.2346,0.920157
71.2846,0.920166
71.3346,0.920176
71.3846,0.920187
71.4346,0.920199
71.4846,0.920213
71.5346,0.920227
71.5846,0.920243
71.6346,0.920261
71.6846,0.920281
71.7346,0.920303
71.7846,0.920328
71.8346,0.920357
71.8846,0.920389
71.9346,0.920425
71.9846,0.920467
72.0346,0.920516
72.0846,0.920573
72.1346,0.920639
72.1846,0.920718
72.2346,0.920812
72.2846,0.920925
72.3346,0.921064
72.3846,0.921237
72.4346,0.921454
72.4846,0.921732
72.5346,0.922097
72.5846,0.922585
72.6346,0.923259
72.6846,0.924217
72.7346,0.925629
72.7846,0.927791
72.8346,0.931199
72.8846,0.936539
72.9346,0.943883
72.9846,0.949838
73.0346,0.948253
73.0846,0.941047
73.1346,0.934313
73.1846,0.92976
73.2346,0.926884
73.2846,0.925042
73.3346,0.923823
73.3846,0.922984
73.4346,0.922388
73.4846,0.92195
73.5346,0.921621
73.5846,0.921368
73.6346,0.921169
73.6846,0.92101
73.7346,0.920881