File: li_2014/100_xrd/curve_total_fit.dat
29.1813,0.152176
29.1913,0.15219
29.2013,0.152204
29.2113,0.152217
29.2213,0.152231
29.2313,0.152245
29.2413,0.15226
29.2513,0.152274
29.2613,0.152288
29.2713,0.152303
29.2813,0.152318
29.2913,0.152333
29.3013,0.152348
29.3113,0.152363
29.3213,0.152378
29.3313,0.152394
29.3413,0.152409
29.3513,0.152425
29.3613,0.152441
29.3713,0.152457
29.3813,0.152473
29.3913,0.15249
29.4013,0.152507
29.4113,0.152523
29.4213,0.15254
29.4313,0.152557
29.4413,0.152575
29.4513,0.152592
29.4613,0.15261
29.4713,0.152627
29.4813,0.152645
29.4913,0.152664
29.5013,0.152682
29.5113,0.152701
29.5213,0.152719
29.5313,0.152738
29.5413,0.152757
29.5513,0.152777
29.5613,0.152796
29.5713,0.152816
29.5813,0.152836
29.5913,0.152856
29.6013,0.152876
29.6113,0.152897
29.6213,0.152918
29.6313,0.152939
29.6413,0.15296
29.6513,0.152982
29.6613,0.153004
29.6713,0.153026
29.6813,0.153048
29.6913,0.15307
29.7013,0.153093
29.7113,0.153116
29.7213,0.153139
29.7313,0.153163
29.7413,0.153186
29.7513,0.15321
29.7613,0.153235
29.7713,0.153259
29.7813,0.153284
29.7913,0.153309
29.8013,0.153335
29.8113,0.15336
29.8213,0.153387
29.8313,0.153413
29.8413,0.153439
29.8513,0.153466
29.8613,0.153494
29.8713,0.153521
29.8813,0.153549
29.8913,0.153577
29.9013,0.153606
29.9113,0.153635
29.9213,0.153664
29.9313,0.153694
29.9413,0.153724
29.9513,0.153754
29.9613,0.153785
29.9713,0.153816
29.9813,0.153848
29.9913,0.15388
30.0013,0.153912
30.0113,0.153944
30.0213,0.153978
30.0313,0.154011
30.0413,0.154045
30.0513,0.154079
30.0613,0.154114
30.0713,0.15415
30.0813,0.154185
30.0913,0.154221
30.1013,0.154258
30.1113,0.154295
30.1213,0.154333
30.1313,0.154371
30.1413,0.15441
30.1513,0.154449
30.1613,0.154488
30.1713,0.154529
30.1813,0.154569
30.1913,0.154611
30.2013,0.154652
30.2113,0.154695
30.2213,0.154738
30.2313,0.154781
30.2413,0.154826
30.2513,0.15487
30.2613,0.154916
30.2713,0.154962
30.2813,0.155009
30.2913,0.155056
30.3013,0.155104
30.3113,0.155153
30.3213,0.155202
30.3313,0.155252
30.3413,0.155303
30.3513,0.155355
30.3613,0.155407
30.3713,0.15546
30.3813,0.155514
30.3913,0.155569
30.4013,0.155625
30.4113,0.155681
30.4213,0.155738
30.4313,0.155796
30.4413,0.155855
30.4513,0.155915
30.4613,0.155976
30.4713,0.156038
30.4813,0.1561
30.4913,0.156164
30.5013,0.156229
30.5113,0.156295
30.5213,0.156361
30.5313,0.156429
30.5413,0.156498
30.5513,0.156568
30.5613,0.156639
30.5713,0.156712
30.5813,0.156785
30.5913,0.15686
30.6013,0.156936
30.6113,0.157013
30.6213,0.157092
30.6313,0.157171
30.6413,0.157253
30.6513,0.157335
30.6613,0.157419
30.6713,0.157505
30.6813,0.157592
30.6913,0.15768
30.7013,0.15777
30.7113,0.157862
30.7213,0.157955
30.7313,0.15805
30.7413,0.158146
30.7513,0.158244
30.7613,0.158345
30.7713,0.158447
30.7813,0.15855
30.7913,0.158656
30.8013,0.158764
30.8113,0.158873
30.8213,0.158985
30.8313,0.159099
30.8413,0.159215
30.8513,0.159333
30.8613,0.159454
30.8713,0.159577
30.8813,0.159702
30.8913,0.15983
30.9013,0.15996
30.9113,0.160093
30.9213,0.160229
30.9313,0.160367
30.9413,0.160508
30.9513,0.160652
30.9613,0.160799
30.9713,0.160949
30.9813,0.161102
30.9913,0.161259
31.0013,0.161419
31.0113,0.161582
31.0213,0.161748
31.0313,0.161919
31.0413,0.162093
31.0513,0.16227
31.0613,0.162452
31.0713,0.162638
31.0813,0.162828
31.0913,0.163022
31.1013,0.163221
31.1113,0.163424
31.1213,0.163632
31.1313,0.163845
31.1413,0.164063
31.1513,0.164285
31.1613,0.164514
31.1713,0.164747
31.1813,0.164987
31.1913,0.165232
31.2013,0.165483
31.2113,0.165741
31.2213,0.166005
31.2313,0.166275
31.2413,0.166553
31.2513,0.166837
31.2613,0.167129
31.2713,0.167429
31.2813,0.167736
31.2913,0.168052
31.3013,0.168376
31.3113,0.168709
31.3213,0.169051
31.3313,0.169402
31.3413,0.169763
31.3513,0.170134
31.3613,0.170516
31.3713,0.170908
31.3813,0.171312
31.3913,0.171728
31.4013,0.172155
31.4113,0.172596
31.4213,0.173049
31.4313,0.173516
31.4413,0.173998
31.4513,0.174494
31.4613,0.175005
31.4713,0.175533
31.4813,0.176077
31.4913,0.176639
31.5013,0.177219
31.5113,0.177818
31.5213,0.178437
31.5313,0.179076
31.5413,0.179737
31.5513,0.180421
31.5613,0.181128
31.5713,0.18186
31.5813,0.182618
31.5913,0.183402
31.6013,0.184215
31.6113,0.185058
31.6213,0.185932
31.6313,0.186838
31.6413,0.187779
31.6513,0.188756
31.6613,0.18977
31.6713,0.190825
31.6813,0.191921
31.6913,0.193061
31.7013,0.194248
31.7113,0.195484
31.7213,0.196771
31.7313,0.198113
31.7413,0.199512
31.7513,0.200973
31.7613,0.202497
31.7713,0.20409
31.7813,0.205755
31.7913,0.207496
31.8013,0.209319
31.8113,0.211227
31.8213,0.213227
31.8313,0.215324
31.8413,0.217525
31.8513,0.219836
31.8613,0.222265
31.8713,0.224819
31.8813,0.227507
31.8913,0.230338
31.9013,0.233322
31.9113,0.236471
31.9213,0.239795
31.9313,0.243308
31.9413,0.247024
31.9513,0.250957
31.9613,0.255125
31.9713,0.259546
31.9813,0.264239
31.9913,0.269226
32.0013,0.274531
32.0113,0.28018
32.0213,0.286202
32.0313,0.292627
32.0413,0.29949
32.0513,0.30683
32.0613,0.314687
32.0713,0.323107
32.0813,0.33214
32.0913,0.341842
32.1013,0.352272
32.1113,0.363498
32.1213,0.375591
32.1313,0.388632
32.1413,0.402706
32.1513,0.417908
32.1613,0.434338
32.1713,0.452105
32.1813,0.471325
32.1913,0.492116
32.2013,0.514604
32.2113,0.538913
32.2213,0.565163
32.2313,0.593466
32.2413,0.623914
32.2513,0.65657
32.2613,0.691451
32.2713,0.728514
32.2813,0.767628
32.2913,0.808554
32.3013,0.850913
32.3113,0.894161
32.3213,0.937568
32.3313,0.980208
32.3413,1.02096
32.3513,1.05856
32.3613,1.09163
32.3713,1.11882
32.3813,1.1389
32.3913,1.15088
32.4013,1.15415
32.4113,1.14853
32.4213,1.13433
32.4313,1.11226
32.4413,1.08338
32.4513,1.04897
32.4613,1.01041
32.4713,0.969039
32.4813,0.926095
32.4913,0.882647
32.5013,0.839572
32.5113,0.797547
32.5213,0.757071
32.5313,0.718482
32.5413,0.681989
32.5513,0.647696
32.5613,0.61563
32.5713,0.585758
32.5813,0.558009
32.5913,0.532285
32.6013,0.508471
32.6113,0.486445
32.6213,0.466082
32.6313,0.44726
32.6413,0.429858
32.6513,0.413763
32.6613,0.39887
32.6713,0.385079
32.6813,0.372297
32.6913,0.360441
32.7013,0.349433
32.7113,0.339202
32.7213,0.329684
32.7313,0.320818
32.7413,0.312552
32.7513,0.304837
32.7613,0.297628
32.7713,0.290884
32.7813,0.284569
32.7913,0.278649
32.8013,0.273094
32.8113,0.267876
32.8213,0.262969
32.8313,0.258351
32.8413,0.253999
32.8513,0.249895
32.8613,0.246021
32.8713,0.242361
32.8813,0.238899
32.8913,0.235623
32.9013,0.23252
32.9113,0.229577
32.9213,0.226785
32.9313,0.224134
32.9413,0.221614
32.9513,0.219217
32.9613,0.216937
32.9713,0.214764
32.9813,0.212693
32.9913,0.210719
33.0013,0.208834
33.0113,0.207034
33.0213,0.205314
33.0313,0.203669
33.0413,0.202095
33.0513,0.200588
33.0613,0.199145
33.0713,0.197762
33.0813,0.196435
33.0913,0.195162
33.1013,0.19394
33.1113,0.192767
33.1213,0.191639
33.1313,0.190555
33.1413,0.189512
33.1513,0.188508
33.1613,0.187542
33.1713,0.186612
33.1813,0.185715
33.1913,0.184851
33.2013,0.184017
33.2113,0.183213
33.2213,0.182436
33.2313,0.181687
33.2413,0.180963
33.2513,0.180264
33.2613,0.179588
33.2713,0.178934
33.2813,0.178302
33.2913,0.17769
33.3013,0.177098
33.3113,0.176524
33.3213,0.175969
33.3313,0.175431
33.3413,0.17491
33.3513,0.174405
33.3613,0.173915
33.3713,0.17344
33.3813,0.172979
33.3913,0.172532
33.4013,0.172098
33.4113,0.171676
33.4213,0.171267
33.4313,0.17087
33.4413,0.170484
33.4513,0.170108
33.4613,0.169744
33.4713,0.169389
33.4813,0.169045
33.4913,0.168709
33.5013,0.168383
33.5113,0.168066
33.5213,0.167758
33.5313,0.167458
33.5413,0.167166
33.5513,0.166881
33.5613,0.166605
33.5713,0.166335
33.5813,0.166073
33.5913,0.165817
33.6013,0.165569
33.6113,0.165326
33.6213,0.16509
33.6313,0.164861
33.6413,0.164637
33.6513,0.164419
33.6613,0.164207
33.6713,0.164
33.6813,0.163798
33.6913,0.163602
33.7013,0.163411
33.7113,0.163225
33.7213,0.163044
33.7313,0.162867
33.7413,0.162696
33.7513,0.162528
33.7613,0.162366
33.7713,0.162207
33.7813,0.162053
33.7913,0.161904
33.8013,0.161758
33.8113,0.161616
33.8213,0.161479
33.8313,0.161345
33.8413,0.161215
33.8513,0.161089
33.8613,0.160967
33.8713,0.160849
33.8813,0.160734
33.8913,0.160623
33.9013,0.160515
33.9113,0.160411
33.9213,0.160311
33.9313,0.160214
33.9413,0.16012
33.9513,0.16003
33.9613,0.159944
33.9713,0.159861
33.9813,0.159781
33.9913,0.159704
34.0013,0.159631
34.0113,0.159562
34.0213,0.159495
34.0313,0.159432
34.0413,0.159373
34.0513,0.159317
34.0613,0.159264
34.0713,0.159214
34.0813,0.159168
34.0913,0.159125
34.1013,0.159086
34.1113,0.15905
34.1213,0.159018
34.1313,0.158989
34.1413,0.158964
34.1513,0.158942
34.1613,0.158924
34.1713,0.158909
34.1813,0.158898
34.1913,0.158891
34.2013,0.158887
34.2113,0.158887
34.2213,0.158891
34.2313,0.158899
34.2413,0.158911
34.2513,0.158926
34.2613,0.158946
34.2713,0.15897
34.2813,0.158997
34.2913,0.159029
34.3013,0.159065
34.3113,0.159106
34.3213,0.159151
34.3313,0.1592
34.3413,0.159254
34.3513,0.159312
34.3613,0.159375
34.3713,0.159442
34.3813,0.159515
34.3913,0.159592
34.4013,0.159674
34.4113,0.159761
34.4213,0.159853
34.4313,0.159951
34.4413,0.160054
34.4513,0.160162
34.4613,0.160275
34.4713,0.160394
34.4813,0.160519
34.4913,0.16065
34.5013,0.160786
34.5113,0.160928
34.5213,0.161076
34.5313,0.161231
34.5413,0.161391
34.5513,0.161558
34.5613,0.161732
34.5713,0.161912
34.5813,0.162098
34.5913,0.162292
34.6013,0.162492
34.6113,0.162699
34.6213,0.162914
34.6313,0.163135
34.6413,0.163364
34.6513,0.1636
34.6613,0.163844
34.6713,0.164096
34.6813,0.164355
34.6913,0.164622
34.7013,0.164898
34.7113,0.165181
34.7213,0.165472
34.7313,0.165772
34.7413,0.166081
34.7513,0.166398
34.7613,0.166724
34.7713,0.167058
34.7813,0.167402
34.7913,0.167754
34.8013,0.168116
34.8113,0.168487
34.8213,0.168867
34.8313,0.169257
34.8413,0.169657
34.8513,0.170066
34.8613,0.170485
34.8713,0.170914
34.8813,0.171353
34.8913,0.171802
34.9013,0.172261
34.9113,0.172731
34.9213,0.173211
34.9313,0.173702
34.9413,0.174204
34.9513,0.174716
34.9613,0.175239
34.9713,0.175773
34.9813,0.176317
34.9913,0.176873
35.0013,0.17744
35.0113,0.178019
35.0213,0.178608
35.0313,0.179209
35.0413,0.179822
35.0513,0.180445
35.0613,0.181081
35.0713,0.181728
35.0813,0.182386
35.0913,0.183057
35.1013,0.183738
35.1113,0.184432
35.1213,0.185138
35.1313,0.185855
35.1413,0.186584
35.1513,0.187325
35.1613,0.188078
35.1713,0.188843
35.1813,0.189619
35.1913,0.190408
35.2013,0.191208
35.2113,0.19202
35.2213,0.192844
35.2313,0.19368
35.2413,0.194527
35.2513,0.195386
35.2613,0.196257
35.2713,0.197139
35.2813,0.198033
35.2913,0.198938
35.3013,0.199854
35.3113,0.200782
35.3213,0.201721
35.3313,0.202672
35.3413,0.203633
35.3513,0.204605
35.3613,0.205588
35.3713,0.206581
35.3813,0.207585
35.3913,0.208599
35.4013,0.209624
35.4113,0.210659
35.4213,0.211703
35.4313,0.212757
35.4413,0.213821
35.4513,0.214894
35.4613,0.215977
35.4713,0.217068
35.4813,0.218168
35.4913,0.219276
35.5013,0.220393
35.5113,0.221518
35.5213,0.222651
35.5313,0.223791
35.5413,0.224938
35.5513,0.226093
35.5613,0.227255
35.5713,0.228422
35.5813,0.229597
35.5913,0.230777
35.6013,0.231962
35.6113,0.233153
35.6213,0.234349
35.6313,0.23555
35.6413,0.236755
35.6513,0.237963
35.6613,0.239176
35.6713,0.240392
35.6813,0.241611
35.6913,0.242832
35.7013,0.244055
35.7113,0.245281
35.7213,0.246507
35.7313,0.247735
35.7413,0.248964
35.7513,0.250192
35.7613,0.251421
35.7713,0.252649
35.7813,0.253876
35.7913,0.255102
35.8013,0.256326
35.8113,0.257547
35.8213,0.258766
35.8313,0.259982
35.8413,0.261194
35.8513,0.262403
35.8613,0.263606
35.8713,0.264805
35.8813,0.265999
35.8913,0.267187
35.9013,0.268368
35.9113,0.269543
35.9213,0.270711
35.9313,0.271871
35.9413,0.273023
35.9513,0.274167
35.9613,0.275302
35.9713,0.276427
35.9813,0.277542
35.9913,0.278647
36.0013,0.279741
36.0113,0.280824
36.0213,0.281895
36.0313,0.282954
36.0413,0.284
36.0513,0.285033
36.0613,0.286053
36.0713,0.287059
36.0813,0.28805
36.0913,0.289026
36.1013,0.289988
36.1113,0.290933
36.1213,0.291863
36.1313,0.292776
36.1413,0.293672
36.1513,0.29455
36.1613,0.295411
36.1713,0.296254
36.1813,0.297078
36.1913,0.297884
36.2013,0.29867
36.2113,0.299437
36.2213,0.300183
36.2313,0.300909
36.2413,0.301615
36.2513,0.3023
36.2613,0.302963
36.2713,0.303605
36.2813,0.304224
36.2913,0.304822
36.3013,0.305397
36.3113,0.305949
36.3213,0.306478
36.3313,0.306984
36.3413,0.307466
36.3513,0.307924
36.3613,0.308358
36.3713,0.308769
36.3813,0.309154
36.3913,0.309515
36.4013,0.309852
36.4113,0.310163
36.4213,0.310449
36.4313,0.31071
36.4413,0.310946
36.4513,0.311156
36.4613,0.31134
36.4713,0.311499
36.4813,0.311632
36.4913,0.311739
36.5013,0.31182
36.5113,0.311875
36.5213,0.311904
36.5313,0.311907
36.5413,0.31188
36.5513,0.311819
36.5613,0.311726
36.5713,0.311599
36.5813,0.31144
36.5913,0.311247
36.6013,0.311022
36.6113,0.310765
36.6213,0.310475
36.6313,0.310152
36.6413,0.309798
36.6513,0.309412
36.6613,0.308994
36.6713,0.308544
36.6813,0.308064
36.6913,0.307553
36.7013,0.307011
36.7113,0.306439
36.7213,0.305837
36.7313,0.305206
36.7413,0.304546
36.7513,0.303857
36.7613,0.30314
36.7713,0.302394
36.7813,0.301622
36.7913,0.300822
36.8013,0.299996
36.8113,0.299144
36.8213,0.298266
36.8313,0.297363
36.8413,0.296436
36.8513,0.295485
36.8613,0.294511
36.8713,0.293513
36.8813,0.292493
36.8913,0.291452
36.9013,0.290389
36.9113,0.289306
36.9213,0.288203
36.9313,0.287081
36.9413,0.28594
36.9513,0.284781
36.9613,0.283604
36.9713,0.28241
36.9813,0.281201
36.9913,0.279976
37.0013,0.278736
37.0113,0.277481
37.0213,0.276213
37.0313,0.274933
37.0413,0.27364
37.0513,0.272335
37.0613,0.271019
37.0713,0.269693
37.0813,0.268358
37.0913,0.267013
37.1013,0.26566
37.1113,0.264299
37.1213,0.262932
37.1313,0.261558
37.1413,0.260178
37.1513,0.258793
37.1613,0.257403
37.1713,0.25601
37.1813,0.254614
37.1913,0.253214
37.2013,0.251813
37.2113,0.250411
37.2213,0.249007
37.2313,0.247603
37.2413,0.2462
37.2513,0.244798
37.2613,0.243397
37.2713,0.241998
37.2813,0.240601
37.2913,0.239208
37.3013,0.237818
37.3113,0.236433
37.3213,0.235052
37.3313,0.233676
37.3413,0.232306
37.3513,0.230942
37.3613,0.229584
37.3713,0.228233
37.3813,0.22689
37.3913,0.225555
37.4013,0.224227
37.4113,0.222909
37.4213,0.221599
37.4313,0.220299
37.4413,0.219008
37.4513,0.217728
37.4613,0.216458
37.4713,0.215199
37.4813,0.21395
37.4913,0.212714
37.5013,0.211488
37.5113,0.210275
37.5213,0.209074
37.5313,0.207885
37.5413,0.206709
37.5513,0.205545
37.5613,0.204395
37.5713,0.203258
37.5813,0.202134
37.5913,0.201024
37.6013,0.199928
37.6113,0.198845
37.6213,0.197777
37.6313,0.196723
37.6413,0.195683
37.6513,0.194658
37.6613,0.193647
37.6713,0.19265
37.6813,0.191668
37.6913,0.190701
37.7013,0.189749
37.7113,0.188811
37.7213,0.187888
37.7313,0.18698
37.7413,0.186087
37.7513,0.185208
37.7613,0.184344
37.7713,0.183496
37.7813,0.182661
37.7913,0.181842
37.8013,0.181037
37.8113,0.180247
37.8213,0.179472
37.8313,0.178711
37.8413,0.177964
37.8513,0.177232
37.8613,0.176514
37.8713,0.17581
37.8813,0.17512
37.8913,0.174444
37.9013,0.173782
37.9113,0.173134
37.9213,0.172499
37.9313,0.171878
37.9413,0.171271
37.9513,0.170676
37.9613,0.170094
37.9713,0.169526
37.9813,0.16897
37.9913,0.168427
38.0013,0.167896
38.0113,0.167378
38.0213,0.166872
38.0313,0.166378
38.0413,0.165895
38.0513,0.165425
38.0613,0.164965
38.0713,0.164518
38.0813,0.164081
38.0913,0.163655
38.1013,0.16324
38.1113,0.162836
38.1213,0.162442
38.1313,0.162059
38.1413,0.161685
38.1513,0.161322
38.1613,0.160968
38.1713,0.160624
38.1813,0.160289
38.1913,0.159964
38.2013,0.159647
38.2113,0.159339
38.2213,0.15904
38.2313,0.15875
38.2413,0.158467
38.2513,0.158193
38.2613,0.157927
38.2713,0.157669
38.2813,0.157418
38.2913,0.157175
38.3013,0.156939
38.3113,0.15671
38.3213,0.156489
38.3313,0.156274
38.3413,0.156065
38.3513,0.155863
38.3613,0.155668
38.3713,0.155478
38.3813,0.155295
38.3913,0.155117
38.4013,0.154946
38.4113,0.154779
38.4213,0.154619
38.4313,0.154463
38.4413,0.154313
38.4513,0.154167
38.4613,0.154027
38.4713,0.153891
38.4813,0.15376
38.4913,0.153633
38.5013,0.153511
38.5113,0.153393
38.5213,0.153279
38.5313,0.153169
38.5413,0.153063
38.5513,0.15296
38.5613,0.152861
38.5713,0.152766
38.5813,0.152674
38.5913,0.152586
38.6013,0.1525
38.6113,0.152418
38.6213,0.152339
38.6313,0.152263
38.6413,0.152189
38.6513,0.152119
38.6613,0.152051
38.6713,0.151985
38.6813,0.151922
38.6913,0.151862
38.7013,0.151803
38.7113,0.151747
38.7213,0.151693
38.7313,0.151641
38.7413,0.151592
38.7513,0.151544
38.7613,0.151498
38.7713,0.151454
38.7813,0.151411
38.7913,0.151371
38.8013,0.151331
38.8113,0.151294
38.8213,0.151258
38.8313,0.151223
38.8413,0.15119
38.8513,0.151158
38.8613,0.151128
38.8713,0.151098
38.8813,0.15107
38.8913,0.151043
38.9013,0.151017