File: li_2014/100_xrd/curve_1_fit.dat
29.1813,0.00217629
29.1913,0.00218985
29.2013,0.00220353
29.2113,0.00221735
29.2213,0.00223129
29.2313,0.00224536
29.2413,0.00225957
29.2513,0.00227391
29.2613,0.00228839
29.2713,0.00230301
29.2813,0.00231777
29.2913,0.00233267
29.3013,0.00234772
29.3113,0.00236291
29.3213,0.00237825
29.3313,0.00239373
29.3413,0.00240937
29.3513,0.00242517
29.3613,0.00244112
29.3713,0.00245722
29.3813,0.00247349
29.3913,0.00248992
29.4013,0.00250651
29.4113,0.00252327
29.4213,0.0025402
29.4313,0.0025573
29.4413,0.00257457
29.4513,0.00259202
29.4613,0.00260964
29.4713,0.00262745
29.4813,0.00264543
29.4913,0.00266361
29.5013,0.00268197
29.5113,0.00270052
29.5213,0.00271926
29.5313,0.0027382
29.5413,0.00275734
29.5513,0.00277668
29.5613,0.00279622
29.5713,0.00281597
29.5813,0.00283593
29.5913,0.00285611
29.6013,0.00287649
29.6113,0.0028971
29.6213,0.00291793
29.6313,0.00293898
29.6413,0.00296027
29.6513,0.00298178
29.6613,0.00300353
29.6713,0.00302552
29.6813,0.00304775
29.6913,0.00307023
29.7013,0.00309295
29.7113,0.00311593
29.7213,0.00313917
29.7313,0.00316266
29.7413,0.00318642
29.7513,0.00321045
29.7613,0.00323475
29.7713,0.00325933
29.7813,0.00328419
29.7913,0.00330933
29.8013,0.00333477
29.8113,0.0033605
29.8213,0.00338652
29.8313,0.00341285
29.8413,0.00343949
29.8513,0.00346644
29.8613,0.00349371
29.8713,0.0035213
29.8813,0.00354921
29.8913,0.00357747
29.9013,0.00360605
29.9113,0.00363499
29.9213,0.00366427
29.9313,0.00369391
29.9413,0.0037239
29.9513,0.00375427
29.9613,0.003785
29.9713,0.00381612
29.9813,0.00384762
29.9913,0.00387951
30.0013,0.0039118
30.0113,0.00394449
30.0213,0.00397759
30.0313,0.00401111
30.0413,0.00404506
30.0513,0.00407944
30.0613,0.00411426
30.0713,0.00414952
30.0813,0.00418524
30.0913,0.00422143
30.1013,0.00425808
30.1113,0.00429521
30.1213,0.00433283
30.1313,0.00437094
30.1413,0.00440956
30.1513,0.00444869
30.1613,0.00448835
30.1713,0.00452854
30.1813,0.00456926
30.1913,0.00461054
30.2013,0.00465238
30.2113,0.00469479
30.2213,0.00473779
30.2313,0.00478137
30.2413,0.00482556
30.2513,0.00487036
30.2613,0.00491579
30.2713,0.00496186
30.2813,0.00500857
30.2913,0.00505595
30.3013,0.005104
30.3113,0.00515274
30.3213,0.00520218
30.3313,0.00525233
30.3413,0.00530321
30.3513,0.00535483
30.3613,0.00540721
30.3713,0.00546036
30.3813,0.0055143
30.3913,0.00556903
30.4013,0.00562459
30.4113,0.00568097
30.4213,0.00573821
30.4313,0.00579632
30.4413,0.00585531
30.4513,0.0059152
30.4613,0.00597602
30.4713,0.00603778
30.4813,0.00610049
30.4913,0.00616419
30.5013,0.00622889
30.5113,0.00629461
30.5213,0.00636138
30.5313,0.00642921
30.5413,0.00649812
30.5513,0.00656815
30.5613,0.00663932
30.5713,0.00671164
30.5813,0.00678515
30.5913,0.00685988
30.6013,0.00693584
30.6113,0.00701306
30.6213,0.00709158
30.6313,0.00717143
30.6413,0.00725262
30.6513,0.0073352
30.6613,0.0074192
30.6713,0.00750464
30.6813,0.00759156
30.6913,0.00768
30.7013,0.00776999
30.7113,0.00786156
30.7213,0.00795476
30.7313,0.00804962
30.7413,0.00814619
30.7513,0.00824449
30.7613,0.00834458
30.7713,0.00844651
30.7813,0.0085503
30.7913,0.00865601
30.8013,0.00876369
30.8113,0.00887339
30.8213,0.00898515
30.8313,0.00909903
30.8413,0.00921509
30.8513,0.00933337
30.8613,0.00945393
30.8713,0.00957684
30.8813,0.00970216
30.8913,0.00982994
30.9013,0.00996025
30.9113,0.0100932
30.9213,0.0102287
30.9313,0.0103671
30.9413,0.0105082
30.9513,0.0106522
30.9613,0.0107992
30.9713,0.0109493
30.9813,0.0111025
30.9913,0.0112589
31.0013,0.0114186
31.0113,0.0115818
31.0213,0.0117484
31.0313,0.0119187
31.0413,0.0120927
31.0513,0.0122704
31.0613,0.0124522
31.0713,0.0126379
31.0813,0.0128279
31.0913,0.0130221
31.1013,0.0132208
31.1113,0.013424
31.1213,0.013632
31.1313,0.0138447
31.1413,0.0140625
31.1513,0.0142854
31.1613,0.0145137
31.1713,0.0147474
31.1813,0.0149868
31.1913,0.015232
31.2013,0.0154833
31.2113,0.0157408
31.2213,0.0160048
31.2313,0.0162754
31.2413,0.0165529
31.2513,0.0168375
31.2613,0.0171294
31.2713,0.017429
31.2813,0.0177365
31.2913,0.0180521
31.3013,0.0183762
31.3113,0.018709
31.3213,0.0190509
31.3313,0.0194022
31.3413,0.0197632
31.3513,0.0201343
31.3613,0.0205159
31.3713,0.0209084
31.3813,0.0213121
31.3913,0.0217276
31.4013,0.0221553
31.4113,0.0225956
31.4213,0.0230491
31.4313,0.0235162
31.4413,0.0239976
31.4513,0.0244938
31.4613,0.0250054
31.4713,0.025533
31.4813,0.0260774
31.4913,0.0266392
31.5013,0.0272192
31.5113,0.0278182
31.5213,0.0284369
31.5313,0.0290763
31.5413,0.0297373
31.5513,0.0304209
31.5613,0.0311281
31.5713,0.0318599
31.5813,0.0326175
31.5913,0.0334022
31.6013,0.0342152
31.6113,0.0350579
31.6213,0.0359317
31.6313,0.0368382
31.6413,0.0377789
31.6513,0.0387557
31.6613,0.0397703
31.6713,0.0408247
31.6813,0.0419209
31.6913,0.0430613
31.7013,0.044248
31.7113,0.0454838
31.7213,0.0467711
31.7313,0.048113
31.7413,0.0495124
31.7513,0.0509726
31.7613,0.0524972
31.7713,0.0540899
31.7813,0.0557548
31.7913,0.0574961
31.8013,0.0593185
31.8113,0.061227
31.8213,0.063227
31.8313,0.0653243
31.8413,0.0675252
31.8513,0.0698363
31.8613,0.0722649
31.8713,0.074819
31.8813,0.077507
31.8913,0.0803381
31.9013,0.0833225
31.9113,0.0864709
31.9213,0.0897951
31.9313,0.093308
31.9413,0.0970236
31.9513,0.100957
31.9613,0.105125
31.9713,0.109546
31.9813,0.114239
31.9913,0.119226
32.0013,0.124531
32.0113,0.13018
32.0213,0.136202
32.0313,0.142627
32.0413,0.14949
32.0513,0.15683
32.0613,0.164687
32.0713,0.173107
32.0813,0.18214
32.0913,0.191841
32.1013,0.202272
32.1113,0.213498
32.1213,0.225591
32.1313,0.238632
32.1413,0.252706
32.1513,0.267908
32.1613,0.284338
32.1713,0.302105
32.1813,0.321325
32.1913,0.342116
32.2013,0.364604
32.2113,0.388913
32.2213,0.415163
32.2313,0.443466
32.2413,0.473914
32.2513,0.506569
32.2613,0.541451
32.2713,0.578514
32.2813,0.617628
32.2913,0.658554
32.3013,0.700913
32.3113,0.744161
32.3213,0.787568
32.3313,0.830207
32.3413,0.870961
32.3513,0.908557
32.3613,0.94163
32.3713,0.968822
32.3813,0.988899
32.3913,1.00088
32.4013,1.00415
32.4113,0.998534
32.4213,0.984331
32.4313,0.962259
32.4413,0.933381
32.4513,0.898974
32.4613,0.860411
32.4713,0.819039
32.4813,0.776095
32.4913,0.732647
32.5013,0.689572
32.5113,0.647547
32.5213,0.607071
32.5313,0.568482
32.5413,0.531989
32.5513,0.497696
32.5613,0.465629
32.5713,0.435758
32.5813,0.408009
32.5913,0.382284
32.6013,0.35847
32.6113,0.336444
32.6213,0.316082
32.6313,0.297259
32.6413,0.279857
32.6513,0.263763
32.6613,0.248869
32.6713,0.235078
32.6813,0.222296
32.6913,0.21044
32.7013,0.199432
32.7113,0.189201
32.7213,0.179683
32.7313,0.170817
32.7413,0.162551
32.7513,0.154836
32.7613,0.147626
32.7713,0.140882
32.7813,0.134567
32.7913,0.128648
32.8013,0.123092
32.8113,0.117874
32.8213,0.112967
32.8313,0.108348
32.8413,0.103996
32.8513,0.0998922
32.8613,0.0960181
32.8713,0.0923577
32.8813,0.0888961
32.8913,0.0856197
32.9013,0.0825159
32.9113,0.0795731
32.9213,0.0767808
32.9313,0.0741292
32.9413,0.0716092
32.9513,0.0692125
32.9613,0.0669313
32.9713,0.0647586
32.9813,0.0626876
32.9913,0.0607124
33.0013,0.0588272
33.0113,0.0570268
33.0213,0.0553062
33.0313,0.0536609
33.0413,0.0520866
33.0513,0.0505794
33.0613,0.0491356
33.0713,0.0477518
33.0813,0.0464247
33.0913,0.0451513
33.1013,0.0439288
33.1113,0.0427545
33.1213,0.0416261
33.1313,0.0405412
33.1413,0.0394975
33.1513,0.0384931
33.1613,0.0375261
33.1713,0.0365946
33.1813,0.035697
33.1913,0.0348315
33.2013,0.0339969
33.2113,0.0331915
33.2213,0.0324141
33.2313,0.0316634
33.2413,0.0309382
33.2513,0.0302374
33.2613,0.02956
33.2713,0.0289048
33.2813,0.0282709
33.2913,0.0276575
33.3013,0.0270636
33.3113,0.0264885
33.3213,0.0259314
33.3313,0.0253915
33.3413,0.0248682
33.3513,0.0243607
33.3613,0.0238686
33.3713,0.023391
33.3813,0.0229275
33.3913,0.0224776
33.4013,0.0220407
33.4113,0.0216163
33.4213,0.021204
33.4313,0.0208033
33.4413,0.0204137
33.4513,0.0200349
33.4613,0.0196665
33.4713,0.0193081
33.4813,0.0189594
33.4913,0.0186199
33.5013,0.0182894
33.5113,0.0179676
33.5213,0.0176542
33.5313,0.0173488
33.5413,0.0170513
33.5513,0.0167613
33.5613,0.0164786
33.5713,0.016203
33.5813,0.0159341
33.5913,0.0156719
33.6013,0.0154161
33.6113,0.0151664
33.6213,0.0149228
33.6313,0.0146849
33.6413,0.0144526
33.6513,0.0142258
33.6613,0.0140043
33.6713,0.0137878
33.6813,0.0135764
33.6913,0.0133697
33.7013,0.0131677
33.7113,0.0129702
33.7213,0.0127771
33.7313,0.0125883
33.7413,0.0124036
33.7513,0.0122229
33.7613,0.0120462
33.7713,0.0118732
33.7813,0.0117039
33.7913,0.0115382
33.8013,0.011376
33.8113,0.0112171
33.8213,0.0110616
33.8313,0.0109092
33.8413,0.01076
33.8513,0.0106138
33.8613,0.0104705
33.8713,0.0103301
33.8813,0.0101925
33.8913,0.0100577
33.9013,0.00992546
33.9113,0.00979582
33.9213,0.0096687
33.9313,0.00954403
33.9413,0.00942175
33.9513,0.00930179
33.9613,0.00918411
33.9713,0.00906864
33.9813,0.00895532
33.9913,0.00884411
34.0013,0.00873496
34.0113,0.0086278
34.0213,0.0085226
34.0313,0.00841931
34.0413,0.00831788
34.0513,0.00821826
34.0613,0.00812042
34.0713,0.00802431
34.0813,0.00792989
34.0913,0.00783713
34.1013,0.00774598
34.1113,0.00765641
34.1213,0.00756837
34.1313,0.00748185
34.1413,0.00739679
34.1513,0.00731318
34.1613,0.00723097
34.1713,0.00715013
34.1813,0.00707064
34.1913,0.00699247
34.2013,0.00691558
34.2113,0.00683995
34.2213,0.00676555
34.2313,0.00669236
34.2413,0.00662034
34.2513,0.00654948
34.2613,0.00647975
34.2713,0.00641112
34.2813,0.00634357
34.2913,0.00627709
34.3013,0.00621164
34.3113,0.00614721
34.3213,0.00608377
34.3313,0.00602131
34.3413,0.00595981
34.3513,0.00589924
34.3613,0.00583958
34.3713,0.00578083
34.3813,0.00572295
34.3913,0.00566594
34.4013,0.00560978
34.4113,0.00555444
34.4213,0.00549992
34.4313,0.0054462
34.4413,0.00539325
34.4513,0.00534108
34.4613,0.00528965
34.4713,0.00523897
34.4813,0.00518901
34.4913,0.00513975
34.5013,0.0050912
34.5113,0.00504333
34.5213,0.00499613
34.5313,0.00494958
34.5413,0.00490369
34.5513,0.00485843
34.5613,0.00481379
34.5713,0.00476976
34.5813,0.00472633
34.5913,0.00468349
34.6013,0.00464124
34.6113,0.00459955
34.6213,0.00455841
34.6313,0.00451783
34.6413,0.00447779
34.6513,0.00443827
34.6613,0.00439928
34.6713,0.00436079
34.6813,0.00432281
34.6913,0.00428532
34.7013,0.00424832
34.7113,0.00421179
34.7213,0.00417573
34.7313,0.00414013
34.7413,0.00410498
34.7513,0.00407028
34.7613,0.00403602
34.7713,0.00400219
34.7813,0.00396878
34.7913,0.00393578
34.8013,0.0039032
34.8113,0.00387102
34.8213,0.00383923
34.8313,0.00380783
34.8413,0.00377682
34.8513,0.00374618
34.8613,0.00371592
34.8713,0.00368601
34.8813,0.00365647
34.8913,0.00362728
34.9013,0.00359844
34.9113,0.00356994
34.9213,0.00354178
34.9313,0.00351395
34.9413,0.00348645
34.9513,0.00345926
34.9613,0.0034324
34.9713,0.00340584
34.9813,0.00337959
34.9913,0.00335365
35.0013,0.003328
35.0113,0.00330264
35.0213,0.00327757
35.0313,0.00325279
35.0413,0.00322828
35.0513,0.00320406
35.0613,0.0031801
35.0713,0.00315641
35.0813,0.00313298
35.0913,0.00310982
35.1013,0.0030869
35.1113,0.00306424
35.1213,0.00304183
35.1313,0.00301967
35.1413,0.00299774
35.1513,0.00297606
35.1613,0.0029546
35.1713,0.00293338
35.1813,0.00291239
35.1913,0.00289162
35.2013,0.00287107
35.2113,0.00285074
35.2213,0.00283062
35.2313,0.00281072
35.2413,0.00279102
35.2513,0.00277153
35.2613,0.00275225
35.2713,0.00273316
35.2813,0.00271428
35.2913,0.00269558
35.3013,0.00267708
35.3113,0.00265877
35.3213,0.00264065
35.3313,0.00262271
35.3413,0.00260495
35.3513,0.00258738
35.3613,0.00256997
35.3713,0.00255275
35.3813,0.0025357
35.3913,0.00251881
35.4013,0.0025021
35.4113,0.00248555
35.4213,0.00246916
35.4313,0.00245294
35.4413,0.00243687
35.4513,0.00242097
35.4613,0.00240521
35.4713,0.00238961
35.4813,0.00237416
35.4913,0.00235887
35.5013,0.00234371
35.5113,0.00232871
35.5213,0.00231384
35.5313,0.00229912
35.5413,0.00228454
35.5513,0.0022701
35.5613,0.00225579
35.5713,0.00224162
35.5813,0.00222758
35.5913,0.00221367
35.6013,0.00219989
35.6113,0.00218625
35.6213,0.00217272
35.6313,0.00215932
35.6413,0.00214605
35.6513,0.0021329
35.6613,0.00211986
35.6713,0.00210695
35.6813,0.00209415
35.6913,0.00208148
35.7013,0.00206891
35.7113,0.00205646
35.7213,0.00204412
35.7313,0.00203189
35.7413,0.00201977
35.7513,0.00200776
35.7613,0.00199585
35.7713,0.00198406
35.7813,0.00197236
35.7913,0.00196077
35.8013,0.00194928
35.8113,0.00193789
35.8213,0.0019266
35.8313,0.00191541
35.8413,0.00190431
35.8513,0.00189331
35.8613,0.00188241
35.8713,0.0018716
35.8813,0.00186088
35.8913,0.00185026
35.9013,0.00183972
35.9113,0.00182928
35.9213,0.00181892
35.9313,0.00180865
35.9413,0.00179847
35.9513,0.00178838
35.9613,0.00177836
35.9713,0.00176844
35.9813,0.00175859
35.9913,0.00174883
36.0013,0.00173915
36.0113,0.00172955
36.0213,0.00172002
36.0313,0.00171058
36.0413,0.00170121
36.0513,0.00169192
36.0613,0.00168271
36.0713,0.00167357
36.0813,0.00166451
36.0913,0.00165551
36.1013,0.00164659
36.1113,0.00163775
36.1213,0.00162897
36.1313,0.00162027
36.1413,0.00161163
36.1513,0.00160306
36.1613,0.00159456
36.1713,0.00158613
36.1813,0.00157777
36.1913,0.00156947
36.2013,0.00156123
36.2113,0.00155307
36.2213,0.00154496
36.2313,0.00153692
36.2413,0.00152894
36.2513,0.00152102
36.2613,0.00151317
36.2713,0.00150537
36.2813,0.00149763
36.2913,0.00148996
36.3013,0.00148234
36.3113,0.00147478
36.3213,0.00146728
36.3313,0.00145984
36.3413,0.00145245
36.3513,0.00144512
36.3613,0.00143784
36.3713,0.00143062
36.3813,0.00142345
36.3913,0.00141634
36.4013,0.00140928
36.4113,0.00140227
36.4213,0.00139531
36.4313,0.00138841
36.4413,0.00138156
36.4513,0.00137475
36.4613,0.001368
36.4713,0.0013613
36.4813,0.00135464
36.4913,0.00134804
36.5013,0.00134148
36.5113,0.00133497
36.5213,0.00132851
36.5313,0.0013221
36.5413,0.00131573
36.5513,0.0013094
36.5613,0.00130313
36.5713,0.00129689
36.5813,0.00129071
36.5913,0.00128456
36.6013,0.00127846
36.6113,0.00127241
36.6213,0.00126639
36.6313,0.00126042
36.6413,0.00125449
36.6513,0.0012486
36.6613,0.00124276
36.6713,0.00123695
36.6813,0.00123119
36.6913,0.00122546
36.7013,0.00121978
36.7113,0.00121414
36.7213,0.00120853
36.7313,0.00120296
36.7413,0.00119743
36.7513,0.00119194
36.7613,0.00118649
36.7713,0.00118107
36.7813,0.00117569
36.7913,0.00117035
36.8013,0.00116505
36.8113,0.00115978
36.8213,0.00115454
36.8313,0.00114934
36.8413,0.00114418
36.8513,0.00113905
36.8613,0.00113395
36.8713,0.00112889
36.8813,0.00112387
36.8913,0.00111887
36.9013,0.00111391
36.9113,0.00110899
36.9213,0.00110409
36.9313,0.00109923
36.9413,0.0010944
36.9513,0.0010896
36.9613,0.00108483
36.9713,0.0010801
36.9813,0.00107539
36.9913,0.00107072
37.0013,0.00106607
37.0113,0.00106146
37.0213,0.00105687
37.0313,0.00105232
37.0413,0.0010478
37.0513,0.0010433
37.0613,0.00103883
37.0713,0.00103439
37.0813,0.00102998
37.0913,0.0010256
37.1013,0.00102125
37.1113,0.00101692
37.1213,0.00101262
37.1313,0.00100835
37.1413,0.00100411
37.1513,0.000999889
37.1613,0.000995698
37.1713,0.000991532
37.1813,0.000987393
37.1913,0.00098328
37.2013,0.000979192
37.2113,0.00097513
37.2213,0.000971093
37.2313,0.000967081
37.2413,0.000963094
37.2513,0.000959132
37.2613,0.000955193
37.2713,0.000951279
37.2813,0.000947389
37.2913,0.000943523
37.3013,0.000939681
37.3113,0.000935862
37.3213,0.000932066
37.3313,0.000928293
37.3413,0.000924543
37.3513,0.000920816
37.3613,0.000917111
37.3713,0.000913428
37.3813,0.000909768
37.3913,0.000906129
37.4013,0.000902513
37.4113,0.000898918
37.4213,0.000895344
37.4313,0.000891791
37.4413,0.00088826
37.4513,0.00088475
37.4613,0.00088126
37.4713,0.000877791
37.4813,0.000874343
37.4913,0.000870914
37.5013,0.000867506
37.5113,0.000864118
37.5213,0.00086075
37.5313,0.000857401
37.5413,0.000854072
37.5513,0.000850762
37.5613,0.000847471
37.5713,0.000844199
37.5813,0.000840947
37.5913,0.000837713
37.6013,0.000834497
37.6113,0.0008313
37.6213,0.000828122
37.6313,0.000824961
37.6413,0.000821819
37.6513,0.000818695
37.6613,0.000815588
37.6713,0.000812499
37.6813,0.000809427
37.6913,0.000806373
37.7013,0.000803337
37.7113,0.000800317
37.7213,0.000797314
37.7313,0.000794328
37.7413,0.000791359
37.7513,0.000788406
37.7613,0.00078547
37.7713,0.000782551
37.7813,0.000779647
37.7913,0.00077676
37.8013,0.000773889
37.8113,0.000771033
37.8213,0.000768194
37.8313,0.00076537
37.8413,0.000762561
37.8513,0.000759768
37.8613,0.00075699
37.8713,0.000754228
37.8813,0.00075148
37.8913,0.000748748
37.9013,0.00074603
37.9113,0.000743328
37.9213,0.00074064
37.9313,0.000737966
37.9413,0.000735307
37.9513,0.000732662
37.9613,0.000730031
37.9713,0.000727415
37.9813,0.000724813
37.9913,0.000722224
38.0013,0.00071965
38.0113,0.000717089
38.0213,0.000714541
38.0313,0.000712008
38.0413,0.000709487
38.0513,0.000706981
38.0613,0.000704487
38.0713,0.000702007
38.0813,0.000699539
38.0913,0.000697085
38.1013,0.000694643
38.1113,0.000692215
38.1213,0.000689799
38.1313,0.000687395
38.1413,0.000685004
38.1513,0.000682626
38.1613,0.00068026
38.1713,0.000677906
38.1813,0.000675565
38.1913,0.000673235
38.2013,0.000670918
38.2113,0.000668612
38.2213,0.000666319
38.2313,0.000664037
38.2413,0.000661767
38.2513,0.000659508
38.2613,0.000657261
38.2713,0.000655026
38.2813,0.000652802
38.2913,0.000650589
38.3013,0.000648387
38.3113,0.000646197
38.3213,0.000644017
38.3313,0.000641849
38.3413,0.000639691
38.3513,0.000637545
38.3613,0.000635409
38.3713,0.000633284
38.3813,0.00063117
38.3913,0.000629066
38.4013,0.000626972
38.4113,0.000624889
38.4213,0.000622817
38.4313,0.000620755
38.4413,0.000618703
38.4513,0.000616661
38.4613,0.000614629
38.4713,0.000612607
38.4813,0.000610595
38.4913,0.000608593
38.5013,0.000606601
38.5113,0.000604619
38.5213,0.000602646
38.5313,0.000600683
38.5413,0.00059873
38.5513,0.000596786
38.5613,0.000594851
38.5713,0.000592926
38.5813,0.00059101
38.5913,0.000589104
38.6013,0.000587207
38.6113,0.000585318
38.6213,0.000583439
38.6313,0.000581569
38.6413,0.000579708
38.6513,0.000577856
38.6613,0.000576013
38.6713,0.000574179
38.6813,0.000572353
38.6913,0.000570536
38.7013,0.000568727
38.7113,0.000566928
38.7213,0.000565136
38.7313,0.000563354
38.7413,0.000561579
38.7513,0.000559813
38.7613,0.000558055
38.7713,0.000556306
38.7813,0.000554565
38.7913,0.000552832
38.8013,0.000551107
38.8113,0.00054939
38.8213,0.000547681
38.8313,0.00054598
38.8413,0.000544287
38.8513,0.000542602
38.8613,0.000540925
38.8713,0.000539255
38.8813,0.000537593
38.8913,0.000535939
38.9013,0.000534292