File: li_2014/100_xrd/curve_2_fit.dat
29.1813,1.49954e-20
29.1913,1.68933e-20
29.2013,1.90283e-20
29.2113,2.14296e-20
29.2213,2.413e-20
29.2313,2.71664e-20
29.2413,3.05798e-20
29.2513,3.44166e-20
29.2613,3.87285e-20
29.2713,4.35735e-20
29.2813,4.90167e-20
29.2913,5.51309e-20
29.3013,6.19977e-20
29.3113,6.97084e-20
29.3213,7.83655e-20
29.3313,8.80834e-20
29.3413,9.89903e-20
29.3513,1.1123e-19
29.3613,1.24962e-19
29.3713,1.40367e-19
29.3813,1.57646e-19
29.3913,1.77022e-19
29.4013,1.98749e-19
29.4113,2.23105e-19
29.4213,2.50406e-19
29.4313,2.81001e-19
29.4413,3.15284e-19
29.4513,3.53692e-19
29.4613,3.96715e-19
29.4713,4.44898e-19
29.4813,4.98853e-19
29.4913,5.5926e-19
29.5013,6.26881e-19
29.5113,7.02563e-19
29.5213,7.87255e-19
29.5313,8.82013e-19
29.5413,9.88016e-19
29.5513,1.10658e-18
29.5613,1.23917e-18
29.5713,1.38742e-18
29.5813,1.55316e-18
29.5913,1.73841e-18
29.6013,1.94544e-18
29.6113,2.17678e-18
29.6213,2.43523e-18
29.6313,2.72392e-18
29.6413,3.04634e-18
29.6513,3.40637e-18
29.6613,3.80834e-18
29.6713,4.25704e-18
29.6813,4.75785e-18
29.6913,5.3167e-18
29.7013,5.94024e-18
29.7113,6.63582e-18
29.7213,7.41166e-18
29.7313,8.27685e-18
29.7413,9.24155e-18
29.7513,1.0317e-17
29.7613,1.15158e-17
29.7713,1.28517e-17
29.7813,1.43403e-17
29.7913,1.59987e-17
29.8013,1.7846e-17
29.8113,1.99034e-17
29.8213,2.21944e-17
29.8313,2.47451e-17
29.8413,2.75844e-17
29.8513,3.07445e-17
29.8613,3.42611e-17
29.8713,3.81738e-17
29.8813,4.25263e-17
29.8913,4.73675e-17
29.9013,5.27512e-17
29.9113,5.87373e-17
29.9213,6.5392e-17
29.9313,7.27889e-17
29.9413,8.10093e-17
29.9513,9.01435e-17
29.9613,1.00291e-16
29.9713,1.11563e-16
29.9813,1.24082e-16
29.9913,1.37984e-16
30.0013,1.53417e-16
30.0113,1.7055e-16
30.0213,1.89565e-16
30.0313,2.10665e-16
30.0413,2.34077e-16
30.0513,2.60048e-16
30.0613,2.88853e-16
30.0713,3.20798e-16
30.0813,3.56217e-16
30.0913,3.95483e-16
30.1013,4.39005e-16
30.1113,4.87239e-16
30.1213,5.40684e-16
30.1313,5.99893e-16
30.1413,6.65479e-16
30.1513,7.38116e-16
30.1613,8.18548e-16
30.1713,9.07597e-16
30.1813,1.00617e-15
30.1913,1.11527e-15
30.2013,1.236e-15
30.2113,1.36957e-15
30.2213,1.51733e-15
30.2313,1.68077e-15
30.2413,1.8615e-15
30.2513,2.06133e-15
30.2613,2.28225e-15
30.2713,2.52643e-15
30.2813,2.79628e-15
30.2913,3.09445e-15
30.3013,3.42387e-15
30.3113,3.78773e-15
30.3213,4.18959e-15
30.3313,4.63332e-15
30.3413,5.12323e-15
30.3513,5.66401e-15
30.3613,6.26086e-15
30.3713,6.91948e-15
30.3813,7.64614e-15
30.3913,8.44775e-15
30.4013,9.33188e-15
30.4113,1.03069e-14
30.4213,1.13819e-14
30.4313,1.2567e-14
30.4413,1.38732e-14
30.4513,1.53127e-14
30.4613,1.68989e-14
30.4713,1.86463e-14
30.4813,2.0571e-14
30.4913,2.26908e-14
30.5013,2.5025e-14
30.5113,2.75947e-14
30.5213,3.04235e-14
30.5313,3.35367e-14
30.5413,3.69625e-14
30.5513,4.07317e-14
30.5613,4.4878e-14
30.5713,4.94382e-14
30.5813,5.44531e-14
30.5913,5.99669e-14
30.6013,6.60283e-14
30.6113,7.26906e-14
30.6213,8.00121e-14
30.6313,8.80568e-14
30.6413,9.68946e-14
30.6513,1.06602e-13
30.6613,1.17263e-13
30.6713,1.28969e-13
30.6813,1.41821e-13
30.6913,1.55928e-13
30.7013,1.71411e-13
30.7113,1.88401e-13
30.7213,2.0704e-13
30.7313,2.27487e-13
30.7413,2.49913e-13
30.7513,2.74505e-13
30.7613,3.01468e-13
30.7713,3.31026e-13
30.7813,3.63423e-13
30.7913,3.98925e-13
30.8013,4.37825e-13
30.8113,4.8044e-13
30.8213,5.27117e-13
30.8313,5.78235e-13
30.8413,6.34208e-13
30.8513,6.95486e-13
30.8613,7.62561e-13
30.8713,8.35969e-13
30.8813,9.16295e-13
30.8913,1.00418e-12
30.9013,1.10031e-12
30.9113,1.20545e-12
30.9213,1.32042e-12
30.9313,1.44612e-12
30.9413,1.58353e-12
30.9513,1.73372e-12
30.9613,1.89784e-12
30.9713,2.07716e-12
30.9813,2.27306e-12
30.9913,2.48703e-12
31.0013,2.7207e-12
31.0113,2.97584e-12
31.0213,3.25438e-12
31.0313,3.55841e-12
31.0413,3.89021e-12
31.0513,4.25227e-12
31.0613,4.64726e-12
31.0713,5.07812e-12
31.0813,5.54803e-12
31.0913,6.06044e-12
31.1013,6.6191e-12
31.1113,7.22808e-12
31.1213,7.89181e-12
31.1313,8.61509e-12
31.1413,9.40313e-12
31.1513,1.02616e-11
31.1613,1.11966e-11
31.1713,1.22149e-11
31.1813,1.33235e-11
31.1913,1.45305e-11
31.2013,1.58442e-11
31.2113,1.72738e-11
31.2213,1.88295e-11
31.2313,2.05218e-11
31.2413,2.23627e-11
31.2513,2.43647e-11
31.2613,2.65417e-11
31.2713,2.89085e-11
31.2813,3.14812e-11
31.2913,3.42774e-11
31.3013,3.73158e-11
31.3113,4.06169e-11
31.3213,4.4203e-11
31.3313,4.80978e-11
31.3413,5.23273e-11
31.3513,5.69195e-11
31.3613,6.19047e-11
31.3713,6.73155e-11
31.3813,7.31875e-11
31.3913,7.95587e-11
31.4013,8.64705e-11
31.4113,9.39675e-11
31.4213,1.02098e-10
31.4313,1.10914e-10
31.4413,1.20472e-10
31.4513,1.30832e-10
31.4613,1.42059e-10
31.4713,1.54226e-10
31.4813,1.67407e-10
31.4913,1.81685e-10
31.5013,1.97149e-10
31.5113,2.13895e-10
31.5213,2.32025e-10
31.5313,2.51652e-10
31.5413,2.72894e-10
31.5513,2.95881e-10
31.5613,3.20752e-10
31.5713,3.47658e-10
31.5813,3.76759e-10
31.5913,4.0823e-10
31.6013,4.42258e-10
31.6113,4.79045e-10
31.6213,5.18807e-10
31.6313,5.61779e-10
31.6413,6.08211e-10
31.6513,6.58374e-10
31.6613,7.12559e-10
31.6713,7.71078e-10
31.6813,8.34268e-10
31.6913,9.02489e-10
31.7013,9.76131e-10
31.7113,1.05561e-09
31.7213,1.14138e-09
31.7313,1.23391e-09
31.7413,1.33373e-09
31.7513,1.44139e-09
31.7613,1.55749e-09
31.7713,1.68266e-09
31.7813,1.81761e-09
31.7913,1.96305e-09
31.8013,2.11979e-09
31.8113,2.28867e-09
31.8213,2.47061e-09
31.8313,2.66658e-09
31.8413,2.87762e-09
31.8513,3.10486e-09
31.8613,3.34951e-09
31.8713,3.61284e-09
31.8813,3.89625e-09
31.8913,4.2012e-09
31.9013,4.52929e-09
31.9113,4.88221e-09
31.9213,5.26177e-09
31.9313,5.66992e-09
31.9413,6.10874e-09
31.9513,6.58045e-09
31.9613,7.08744e-09
31.9713,7.63225e-09
31.9813,8.21761e-09
31.9913,8.84642e-09
32.0013,9.52181e-09
32.0113,1.02471e-08
32.0213,1.10258e-08
32.0313,1.18618e-08
32.0413,1.27592e-08
32.0513,1.37221e-08
32.0613,1.47554e-08
32.0713,1.58639e-08
32.0813,1.70528e-08
32.0913,1.8328e-08
32.1013,1.96952e-08
32.1113,2.11611e-08
32.1213,2.27323e-08
32.1313,2.44163e-08
32.1413,2.62207e-08
32.1513,2.8154e-08
32.1613,3.02248e-08
32.1713,3.24427e-08
32.1813,3.48177e-08
32.1913,3.73605e-08
32.2013,4.00826e-08
32.2113,4.29959e-08
32.2213,4.61136e-08
32.2313,4.94492e-08
32.2413,5.30176e-08
32.2513,5.68342e-08
32.2613,6.09157e-08
32.2713,6.52797e-08
32.2813,6.9945e-08
32.2913,7.49315e-08
32.3013,8.02605e-08
32.3113,8.59546e-08
32.3213,9.20376e-08
32.3313,9.85352e-08
32.3413,1.05474e-07
32.3513,1.12884e-07
32.3613,1.20794e-07
32.3713,1.29238e-07
32.3813,1.3825e-07
32.3913,1.47866e-07
32.4013,1.58125e-07
32.4113,1.69069e-07
32.4213,1.8074e-07
32.4313,1.93186e-07
32.4413,2.06456e-07
32.4513,2.20601e-07
32.4613,2.35677e-07
32.4713,2.51743e-07
32.4813,2.6886e-07
32.4913,2.87094e-07
32.5013,3.06515e-07
32.5113,3.27197e-07
32.5213,3.49218e-07
32.5313,3.7266e-07
32.5413,3.97612e-07
32.5513,4.24165e-07
32.5613,4.52418e-07
32.5713,4.82474e-07
32.5813,5.14444e-07
32.5913,5.48444e-07
32.6013,5.84595e-07
32.6113,6.23029e-07
32.6213,6.63881e-07
32.6313,7.07298e-07
32.6413,7.53431e-07
32.6513,8.02443e-07
32.6613,8.54505e-07
32.6713,9.09797e-07
32.6813,9.68509e-07
32.6913,1.03084e-06
32.7013,1.09701e-06
32.7113,1.16724e-06
32.7213,1.24176e-06
32.7313,1.32082e-06
32.7413,1.40469e-06
32.7513,1.49364e-06
32.7613,1.58797e-06
32.7713,1.68798e-06
32.7813,1.794e-06
32.7913,1.90636e-06
32.8013,2.02544e-06
32.8113,2.15161e-06
32.8213,2.28526e-06
32.8313,2.42682e-06
32.8413,2.57673e-06
32.8513,2.73546e-06
32.8613,2.9035e-06
32.8713,3.08135e-06
32.8813,3.26958e-06
32.8913,3.46873e-06
32.9013,3.67942e-06
32.9113,3.90228e-06
32.9213,4.13796e-06
32.9313,4.38716e-06
32.9413,4.65062e-06
32.9513,4.9291e-06
32.9613,5.2234e-06
32.9713,5.53438e-06
32.9813,5.86292e-06
32.9913,6.20996e-06
33.0013,6.57647e-06
33.0113,6.96348e-06
33.0213,7.37207e-06
33.0313,7.80337e-06
33.0413,8.25856e-06
33.0513,8.73889e-06
33.0613,9.24565e-06
33.0713,9.78021e-06
33.0813,1.0344e-05
33.0913,1.09385e-05
33.1013,1.15653e-05
33.1113,1.22261e-05
33.1213,1.29225e-05
33.1313,1.36563e-05
33.1413,1.44295e-05
33.1513,1.5244e-05
33.1613,1.61018e-05
33.1713,1.70051e-05
33.1813,1.79563e-05
33.1913,1.89575e-05
33.2013,2.00113e-05
33.2113,2.11203e-05
33.2213,2.22871e-05
33.2313,2.35145e-05
33.2413,2.48056e-05
33.2513,2.61632e-05
33.2613,2.75907e-05
33.2713,2.90914e-05
33.2813,3.06687e-05
33.2913,3.23263e-05
33.3013,3.40679e-05
33.3113,3.58975e-05
33.3213,3.78193e-05
33.3313,3.98375e-05
33.3413,4.19566e-05
33.3513,4.41812e-05
33.3613,4.65162e-05
33.3713,4.89667e-05
33.3813,5.15379e-05
33.3913,5.42353e-05
33.4013,5.70647e-05
33.4113,6.00319e-05
33.4213,6.31431e-05
33.4313,6.64049e-05
33.4413,6.98237e-05
33.4513,7.34067e-05
33.4613,7.7161e-05
33.4713,8.10942e-05
33.4813,8.5214e-05
33.4913,8.95286e-05
33.5013,9.40464e-05
33.5113,9.87761e-05
33.5213,0.000103727
33.5313,0.000108908
33.5413,0.00011433
33.5513,0.000120001
33.5613,0.000125934
33.5713,0.000132139
33.5813,0.000138627
33.5913,0.00014541
33.6013,0.0001525
33.6113,0.000159909
33.6213,0.000167652
33.6313,0.000175741
33.6413,0.00018419
33.6513,0.000193014
33.6613,0.000202228
33.6713,0.000211848
33.6813,0.000221889
33.6913,0.000232369
33.7013,0.000243303
33.7113,0.000254711
33.7213,0.000266611
33.7313,0.000279021
33.7413,0.000291962
33.7513,0.000305453
33.7613,0.000319516
33.7713,0.000334172
33.7813,0.000349444
33.7913,0.000365354
33.8013,0.000381926
33.8113,0.000399186
33.8213,0.000417158
33.8313,0.000435868
33.8413,0.000455343
33.8513,0.000475612
33.8613,0.000496702
33.8713,0.000518643
33.8813,0.000541465
33.8913,0.0005652
33.9013,0.00058988
33.9113,0.000615537
33.9213,0.000642206
33.9313,0.000669922
33.9413,0.000698721
33.9513,0.000728639
33.9613,0.000759716
33.9713,0.000791989
33.9813,0.000825499
33.9913,0.000860287
34.0013,0.000896396
34.0113,0.000933869
34.0213,0.00097275
34.0313,0.00101309
34.0413,0.00105492
34.0513,0.00109831
34.0613,0.0011433
34.0713,0.00118993
34.0813,0.00123827
34.0913,0.00128836
34.1013,0.00134026
34.1113,0.00139402
34.1213,0.00144971
34.1313,0.00150737
34.1413,0.00156708
34.1513,0.00162888
34.1613,0.00169285
34.1713,0.00175905
34.1813,0.00182753
34.1913,0.00189838
34.2013,0.00197165
34.2113,0.00204741
34.2213,0.00212575
34.2313,0.00220672
34.2413,0.00229041
34.2513,0.00237688
34.2613,0.00246622
34.2713,0.0025585
34.2813,0.0026538
34.2913,0.0027522
34.3013,0.00285379
34.3113,0.00295865
34.3213,0.00306687
34.3313,0.00317853
34.3413,0.00329372
34.3513,0.00341253
34.3613,0.00353505
34.3713,0.00366138
34.3813,0.0037916
34.3913,0.00392582
34.4013,0.00406414
34.4113,0.00420664
34.4213,0.00435343
34.4313,0.00450461
34.4413,0.00466029
34.4513,0.00482057
34.4613,0.00498555
34.4713,0.00515533
34.4813,0.00533004
34.4913,0.00550977
34.5013,0.00569464
34.5113,0.00588475
34.5213,0.00608023
34.5313,0.00628118
34.5413,0.00648772
34.5513,0.00669996
34.5613,0.00691802
34.5713,0.00714202
34.5813,0.00737208
34.5913,0.00760832
34.6013,0.00785084
34.6113,0.00809979
34.6213,0.00835527
34.6313,0.00861742
34.6413,0.00888634
34.6513,0.00916218
34.6613,0.00944504
34.6713,0.00973505
34.6813,0.0100323
34.6913,0.010337
34.7013,0.0106492
34.7113,0.0109691
34.7213,0.0112968
34.7313,0.0116323
34.7413,0.0119759
34.7513,0.0123276
34.7613,0.0126875
34.7713,0.0130559
34.7813,0.0134328
34.7913,0.0138183
34.8013,0.0142126
34.8113,0.0146158
34.8213,0.0150279
34.8313,0.0154492
34.8413,0.0158797
34.8513,0.0163196
34.8613,0.0167689
34.8713,0.0172278
34.8813,0.0176963
34.8913,0.0181747
34.9013,0.018663
34.9113,0.0191613
34.9213,0.0196697
34.9313,0.0201883
34.9413,0.0207172
34.9513,0.0212565
34.9613,0.0218063
34.9713,0.0223668
34.9813,0.0229379
34.9913,0.0235197
35.0013,0.0241124
35.0113,0.0247161
35.0213,0.0253307
35.0313,0.0259564
35.0413,0.0265932
35.0513,0.0272413
35.0613,0.0279006
35.0713,0.0285712
35.0813,0.0292533
35.0913,0.0299467
35.1013,0.0306516
35.1113,0.031368
35.1213,0.0320959
35.1313,0.0328354
35.1413,0.0335865
35.1513,0.0343491
35.1613,0.0351234
35.1713,0.0359094
35.1813,0.0367069
35.1913,0.0375161
35.2013,0.0383369
35.2113,0.0391693
35.2213,0.0400133
35.2313,0.0408688
35.2413,0.0417359
35.2513,0.0426144
35.2613,0.0435044
35.2713,0.0444057
35.2813,0.0453184
35.2913,0.0462423
35.3013,0.0471774
35.3113,0.0481236
35.3213,0.0490808
35.3313,0.0500489
35.3413,0.0510278
35.3513,0.0520175
35.3613,0.0530177
35.3713,0.0540284
35.3813,0.0550494
35.3913,0.0560806
35.4013,0.0571219
35.4113,0.0581731
35.4213,0.059234
35.4313,0.0603044
35.4413,0.0613843
35.4513,0.0624733
35.4613,0.0635713
35.4713,0.0646782
35.4813,0.0657936
35.4913,0.0669174
35.5013,0.0680494
35.5113,0.0691892
35.5213,0.0703368
35.5313,0.0714918
35.5413,0.072654
35.5513,0.073823
35.5613,0.0749987
35.5713,0.0761808
35.5813,0.077369
35.5913,0.0785629
35.6013,0.0797623
35.6113,0.0809669
35.6213,0.0821763
35.6313,0.0833903
35.6413,0.0846085
35.6513,0.0858305
35.6613,0.0870561
35.6713,0.0882848
35.6813,0.0895164
35.6913,0.0907503
35.7013,0.0919864
35.7113,0.0932242
35.7213,0.0944633
35.7313,0.0957034
35.7413,0.096944
35.7513,0.0981847
35.7613,0.0994252
35.7713,0.100665
35.7813,0.101904
35.7913,0.103141
35.8013,0.104376
35.8113,0.105609
35.8213,0.10684
35.8313,0.108067
35.8413,0.10929
35.8513,0.110509
35.8613,0.111724
35.8713,0.112934
35.8813,0.114138
35.8913,0.115337
35.9013,0.116529
35.9113,0.117714
35.9213,0.118892
35.9313,0.120063
35.9413,0.121225
35.9513,0.122379
35.9613,0.123523
35.9713,0.124658
35.9813,0.125783
35.9913,0.126898
36.0013,0.128002
36.0113,0.129094
36.0213,0.130175
36.0313,0.131243
36.0413,0.132299
36.0513,0.133341
36.0613,0.13437
36.0713,0.135385
36.0813,0.136385
36.0913,0.137371
36.1013,0.138341
36.1113,0.139295
36.1213,0.140234
36.1313,0.141155
36.1413,0.14206
36.1513,0.142947
36.1613,0.143817
36.1713,0.144668
36.1813,0.145501
36.1913,0.146314
36.2013,0.147109
36.2113,0.147884
36.2213,0.148638
36.2313,0.149373
36.2413,0.150086
36.2513,0.150779
36.2613,0.15145
36.2713,0.152099
36.2813,0.152727
36.2913,0.153332
36.3013,0.153914
36.3113,0.154474
36.3213,0.155011
36.3313,0.155524
36.3413,0.156013
36.3513,0.156479
36.3613,0.156921
36.3713,0.157338
36.3813,0.157731
36.3913,0.158099
36.4013,0.158442
36.4113,0.158761
36.4213,0.159054
36.4313,0.159322
36.4413,0.159564
36.4513,0.159781
36.4613,0.159972
36.4713,0.160137
36.4813,0.160277
36.4913,0.160391
36.5013,0.160478
36.5113,0.16054
36.5213,0.160575
36.5313,0.160585
36.5413,0.160564
36.5513,0.16051
36.5613,0.160423
36.5713,0.160302
36.5813,0.160149
36.5913,0.159963
36.6013,0.159744
36.6113,0.159492
36.6213,0.159208
36.6313,0.158892
36.6413,0.158543
36.6513,0.158163
36.6613,0.157751
36.6713,0.157307
36.6813,0.156833
36.6913,0.156327
36.7013,0.155791
36.7113,0.155225
36.7213,0.154629
36.7313,0.154003
36.7413,0.153348
36.7513,0.152665
36.7613,0.151953
36.7713,0.151213
36.7813,0.150446
36.7913,0.149652
36.8013,0.148831
36.8113,0.147984
36.8213,0.147112
36.8313,0.146214
36.8413,0.145292
36.8513,0.144346
36.8613,0.143377
36.8713,0.142384
36.8813,0.14137
36.8913,0.140333
36.9013,0.139275
36.9113,0.138197
36.9213,0.137099
36.9313,0.135982
36.9413,0.134845
36.9513,0.133691
36.9613,0.132519
36.9713,0.13133
36.9813,0.130125
36.9913,0.128905
37.0013,0.12767
37.0113,0.12642
37.0213,0.125157
37.0313,0.12388
37.0413,0.122592
37.0513,0.121292
37.0613,0.11998
37.0713,0.118659
37.0813,0.117328
37.0913,0.115987
37.1013,0.114639
37.1113,0.113282
37.1213,0.111919
37.1313,0.110549
37.1413,0.109174
37.1513,0.107793
37.1613,0.106408
37.1713,0.105019
37.1813,0.103626
37.1913,0.102231
37.2013,0.100834
37.2113,0.0994354
37.2213,0.098036
37.2313,0.0966364
37.2413,0.095237
37.2513,0.0938386
37.2613,0.0924415
37.2713,0.0910465
37.2813,0.089654
37.2913,0.0882646
37.3013,0.0868788
37.3113,0.085497
37.3213,0.0841199
37.3313,0.0827479
37.3413,0.0813814
37.3513,0.080021
37.3613,0.078667
37.3713,0.07732
37.3813,0.0759804
37.3913,0.0746486
37.4013,0.0733249
37.4113,0.0720099
37.4213,0.0707038
37.4313,0.0694072
37.4413,0.0681202
37.4513,0.0668432
37.4613,0.0655767
37.4713,0.0643209
37.4813,0.0630761
37.4913,0.0618426
37.5013,0.0606207
37.5113,0.0594107
37.5213,0.0582128
37.5313,0.0570273
37.5413,0.0558544
37.5513,0.0546944
37.5613,0.0535473
37.5713,0.0524135
37.5813,0.0512931
37.5913,0.0501863
37.6013,0.0490933
37.6113,0.0480141
37.6213,0.0469489
37.6313,0.0458979
37.6413,0.0448612
37.6513,0.0438388
37.6613,0.0428309
37.6713,0.0418375
37.6813,0.0408587
37.6913,0.0398946
37.7013,0.0389452
37.7113,0.0380105
37.7213,0.0370906
37.7313,0.0361855
37.7413,0.0352952
37.7513,0.0344197
37.7613,0.0335589
37.7713,0.032713
37.7813,0.0318818
37.7913,0.0310652
37.8013,0.0302634
37.8113,0.0294761
37.8213,0.0287034
37.8313,0.0279452
37.8413,0.0272014
37.8513,0.0264719
37.8613,0.0257567
37.8713,0.0250556
37.8813,0.0243686
37.8913,0.0236955
37.9013,0.0230363
37.9113,0.0223907
37.9213,0.0217588
37.9313,0.0211403
37.9413,0.0205352
37.9513,0.0199433
37.9613,0.0193644
37.9713,0.0187985
37.9813,0.0182453
37.9913,0.0177047
38.0013,0.0171766
38.0113,0.0166609
38.0213,0.0161572
38.0313,0.0156656
38.0413,0.0151858
38.0513,0.0147176
38.0613,0.014261
38.0713,0.0138156
38.0813,0.0133814
38.0913,0.0129582
38.1013,0.0125457
38.1113,0.0121439
38.1213,0.0117525
38.1313,0.0113714
38.1413,0.0110004
38.1513,0.0106393
38.1613,0.0102879
38.1713,0.00994603
38.1813,0.00961356
38.1913,0.00929029
38.2013,0.00897603
38.2113,0.00867062
38.2213,0.00837387
38.2313,0.0080856
38.2413,0.00780565
38.2513,0.00753383
38.2613,0.00726997
38.2713,0.00701391
38.2813,0.00676547
38.2913,0.00652449
38.3013,0.00629078
38.3113,0.0060642
38.3213,0.00584457
38.3313,0.00563173
38.3413,0.00542552
38.3513,0.00522578
38.3613,0.00503236
38.3713,0.0048451
38.3813,0.00466384
38.3913,0.00448843
38.4013,0.00431873
38.4113,0.00415459
38.4213,0.00399586
38.4313,0.0038424
38.4413,0.00369407
38.4513,0.00355074
38.4613,0.00341226
38.4713,0.0032785
38.4813,0.00314934
38.4913,0.00302464
38.5013,0.00290428
38.5113,0.00278814
38.5213,0.00267608
38.5313,0.002568
38.5413,0.00246377
38.5513,0.00236329
38.5613,0.00226644
38.5713,0.0021731
38.5813,0.00208318
38.5913,0.00199657
38.6013,0.00191317
38.6113,0.00183287
38.6213,0.00175558
38.6313,0.0016812
38.6413,0.00160964
38.6513,0.0015408
38.6613,0.00147461
38.6713,0.00141097
38.6813,0.00134979
38.6913,0.001291
38.7013,0.00123452
38.7113,0.00118027
38.7213,0.00112816
38.7313,0.00107814
38.7413,0.00103011
38.7513,0.000984029
38.7613,0.000939812
38.7713,0.000897396
38.7813,0.000856717
38.7913,0.000817714
38.8013,0.000780325
38.8113,0.000744492
38.8213,0.000710157
38.8313,0.000677266
38.8413,0.000645766
38.8513,0.000615603
38.8613,0.000586728
38.8713,0.000559091
38.8813,0.000532647
38.8913,0.000507348
38.9013,0.000483152