File: kim_2002/xrd/curve_1_fit.dat
32.4056,0.00516216
32.4556,0.00540456
32.5056,0.00566443
32.5556,0.00594347
32.6056,0.00624362
32.6556,0.00656706
32.7056,0.00691627
32.7556,0.00729404
32.8056,0.00770358
32.8556,0.00814855
32.9056,0.00863313
32.9556,0.00916218
33.0056,0.00974128
33.0556,0.010377
33.1056,0.0110768
33.1556,0.0118497
33.2056,0.0127061
33.2556,0.0136587
33.3056,0.0147221
33.3556,0.0159143
33.4056,0.0172568
33.4556,0.0187759
33.5056,0.0205038
33.5556,0.0224806
33.6056,0.0247559
33.6556,0.0273928
33.7056,0.0304715
33.7556,0.0340959
33.8056,0.0384016
33.8556,0.0435689
33.9056,0.0498413
33.9556,0.0575532
34.0056,0.0671737
34.0556,0.0793756
34.1056,0.0951486
34.1556,0.11599
34.2056,0.144238
34.2556,0.183671
34.3056,0.240613
34.3556,0.325987
34.4056,0.458894
34.4556,0.670827
34.5056,0.997763
34.5556,1.40098
34.6056,1.59915
34.6556,1.35708
34.7056,0.953812
34.7556,0.641038
34.8056,0.440235
34.8556,0.314163
34.9056,0.23285
34.9556,0.178375
35.0056,0.140495
35.0556,0.11326
35.1056,0.093103
35.1556,0.0778069
35.2056,0.0659462
35.2556,0.0565757
35.3056,0.0490509
35.3556,0.0429212
35.4056,0.0378644
35.4556,0.0336456
35.5056,0.0300904
35.5556,0.0270675
35.6056,0.0244761
35.6556,0.0222381
35.7056,0.0202925
35.7556,0.0185905
35.8056,0.0170933
35.8556,0.0157694
35.9056,0.0145931
35.9556,0.0135433
36.0056,0.0126026
36.0556,0.0117564
36.1056,0.0109924
36.1556,0.0103004
36.2056,0.00967167
36.2556,0.00909866
36.3056,0.00857501
36.3556,0.00809524
36.4056,0.00765457
36.4556,0.00724887
36.5056,0.00687455
36.5556,0.00652845
36.6056,0.00620782
36.6556,0.00591021
36.7056,0.00563348
36.7556,0.00537571
36.8056,0.00513523
36.8556,0.00491051
36.9056,0.00470021
36.9556,0.00450313
37.0056,0.00431817
37.0556,0.00414437
37.1056,0.00398085
37.1556,0.00382681
37.2056,0.00368154
37.2556,0.00354437
37.3056,0.00341473
37.3556,0.00329207
37.4056,0.00317589
37.4556,0.00306576
37.5056,0.00296125
37.5556,0.002862
37.6056,0.00276764
37.6556,0.00267788
37.7056,0.00259241
37.7556,0.00251097
37.8056,0.0024333
37.8556,0.00235918
37.9056,0.0022884
37.9556,0.00222075
38.0056,0.00215605
38.0556,0.00209414
38.1056,0.00203486
38.1556,0.00197806
38.2056,0.00192361
38.2556,0.00187137
38.3056,0.00182123
38.3556,0.00177308
38.4056,0.00172681
38.4556,0.00168233
38.5056,0.00163954
38.5556,0.00159837
38.6056,0.00155873
38.6556,0.00152054
38.7056,0.00148374
38.7556,0.00144826
38.8056,0.00141404
38.8556,0.00138101
38.9056,0.00134913
38.9556,0.00131834
39.0056,0.00128859
39.0556,0.00125984
39.1056,0.00123204
39.1556,0.00120514
39.2056,0.00117912
39.2556,0.00115394
39.3056,0.00112955
39.3556,0.00110592
39.4056,0.00108303
39.4556,0.00106084
39.5056,0.00103933
39.5556,0.00101847
39.6056,0.000998223
39.6556,0.000978578
39.7056,0.000959506
39.7556,0.000940986
39.8056,0.000922998
39.8556,0.00090552
39.9056,0.000888534
39.9556,0.000872022
40.0056,0.000855965
40.0556,0.000840348
40.1056,0.000825154
40.1556,0.000810368
40.2056,0.000795977
40.2556,0.000781965
40.3056,0.00076832
40.3556,0.000755029
40.4056,0.000742079
40.4556,0.00072946
40.5056,0.000717161
40.5556,0.000705169
40.6056,0.000693476
40.6556,0.000682071
40.7056,0.000670946
40.7556,0.00066009
40.8056,0.000649495
40.8556,0.000639154
40.9056,0.000629057
40.9556,0.000619198
41.0056,0.000609569
41.0556,0.000600163
41.1056,0.000590972
41.1556,0.000581992
41.2056,0.000573214
41.2556,0.000564633
41.3056,0.000556244
41.3556,0.00054804
41.4056,0.000540016
41.4556,0.000532168
41.5056,0.000524489
41.5556,0.000516975
41.6056,0.000509621
41.6556,0.000502423
41.7056,0.000495377
41.7556,0.000488478
41.8056,0.000481722
41.8556,0.000475105
41.9056,0.000468623
41.9556,0.000462273
42.0056,0.000456052
42.0556,0.000449955
42.1056,0.000443979
42.1556,0.000438122
42.2056,0.00043238
42.2556,0.00042675
42.3056,0.000421229
42.3556,0.000415815
42.4056,0.000410505
42.4556,0.000405295
42.5056,0.000400184
42.5556,0.000395169
42.6056,0.000390248
42.6556,0.000385418
42.7056,0.000380677
42.7556,0.000376024
42.8056,0.000371455
42.8556,0.000366968
42.9056,0.000362563
42.9556,0.000358236
43.0056,0.000353987
43.0556,0.000349812
43.1056,0.000345711
43.1556,0.000341682
43.2056,0.000337722
43.2556,0.000333832
43.3056,0.000330007
43.3556,0.000326249
43.4056,0.000322554
43.4556,0.000318921
43.5056,0.00031535
43.5556,0.000311838
43.6056,0.000308385
43.6556,0.000304988
43.7056,0.000301648
43.7556,0.000298362
43.8056,0.000295129
43.8556,0.000291949
43.9056,0.000288819
43.9556,0.00028574
44.0056,0.00028271
44.0556,0.000279728
44.1056,0.000276792
44.1556,0.000273903
44.2056,0.000271058
44.2556,0.000268258
44.3056,0.000265501
44.3556,0.000262786
44.4056,0.000260113
44.4556,0.00025748
44.5056,0.000254887
44.5556,0.000252333
44.6056,0.000249817
44.6556,0.000247338
44.7056,0.000244897
44.7556,0.000242491
44.8056,0.00024012
44.8556,0.000237784
44.9056,0.000235482
44.9556,0.000233214
45.0056,0.000230977
45.0556,0.000228773
45.1056,0.000226601
45.1556,0.000224459
45.2056,0.000222347
45.2556,0.000220265
45.3056,0.000218212
45.3556,0.000216188
45.4056,0.000214192
45.4556,0.000212223
45.5056,0.000210281
45.5556,0.000208366
45.6056,0.000206477
45.6556,0.000204613
45.7056,0.000202774
45.7556,0.000200961
45.8056,0.000199171
45.8556,0.000197405
45.9056,0.000195663
45.9556,0.000193943
46.0056,0.000192246
46.0556,0.000190572
46.1056,0.000188919
46.1556,0.000187287
46.2056,0.000185677
46.2556,0.000184087
46.3056,0.000182517
46.3556,0.000180968
46.4056,0.000179438
46.4556,0.000177928
46.5056,0.000176436
46.5556,0.000174963
46.6056,0.000173509
46.6556,0.000172072
46.7056,0.000170654
46.7556,0.000169253
46.8056,0.000167869
46.8556,0.000166501
46.9056,0.000165151
46.9556,0.000163817
47.0056,0.000162499
47.0556,0.000161197
47.1056,0.00015991
47.1556,0.000158639
47.2056,0.000157383
47.2556,0.000156142
47.3056,0.000154915
47.3556,0.000153703
47.4056,0.000152505
47.4556,0.00015132
47.5056,0.00015015
47.5556,0.000148993
47.6056,0.00014785
47.6556,0.000146719
47.7056,0.000145602
47.7556,0.000144497
47.8056,0.000143405
47.8556,0.000142325
47.9056,0.000141257
47.9556,0.000140201
48.0056,0.000139157
48.0556,0.000138125
48.1056,0.000137104
48.1556,0.000136094
48.2056,0.000135096
48.2556,0.000134108
48.3056,0.000133131
48.3556,0.000132165
48.4056,0.000131209
48.4556,0.000130264
48.5056,0.000129329
48.5556,0.000128404
48.6056,0.000127488
48.6556,0.000126583
48.7056,0.000125687
48.7556,0.0001248
48.8056,0.000123923
48.8556,0.000123055
48.9056,0.000122197
48.9556,0.000121347
49.0056,0.000120506
49.0556,0.000119674
49.1056,0.00011885
49.1556,0.000118035
49.2056,0.000117228
49.2556,0.000116429
49.3056,0.000115639
49.3556,0.000114856
49.4056,0.000114082
49.4556,0.000113315
49.5056,0.000112556
49.5556,0.000111805
49.6056,0.000111061
49.6556,0.000110324
49.7056,0.000109595
49.7556,0.000108873
49.8056,0.000108158
49.8556,0.00010745
49.9056,0.000106749
49.9556,0.000106055
50.0056,0.000105368
50.0556,0.000104687
50.1056,0.000104013
50.1556,0.000103345
50.2056,0.000102684
50.2556,0.000102029
50.3056,0.00010138
50.3556,0.000100738
50.4056,0.000100101
50.4556,9.9471e-05
50.5056,9.88465e-05
50.5556,9.82279e-05
50.6056,9.76151e-05
50.6556,9.7008e-05
50.7056,9.64065e-05
50.7556,9.58106e-05
50.8056,9.52203e-05
50.8556,9.46353e-05
50.9056,9.40558e-05
50.9556,9.34815e-05
51.0056,9.29125e-05
51.0556,9.23487e-05
51.1056,9.179e-05
51.1556,9.12363e-05
51.2056,9.06877e-05
51.2556,9.01439e-05
51.3056,8.96051e-05
51.3556,8.9071e-05
51.4056,8.85418e-05
51.4556,8.80172e-05
51.5056,8.74973e-05
51.5556,8.69819e-05
51.6056,8.64711e-05
51.6556,8.59648e-05
51.7056,8.5463e-05
51.7556,8.49655e-05
51.8056,8.44723e-05
51.8556,8.39834e-05
51.9056,8.34988e-05
51.9556,8.30183e-05
52.0056,8.2542e-05
52.0556,8.20698e-05
52.1056,8.16016e-05
52.1556,8.11374e-05
52.2056,8.06771e-05
52.2556,8.02208e-05
52.3056,7.97683e-05
52.3556,7.93196e-05
52.4056,7.88747e-05
52.4556,7.84335e-05
52.5056,7.79961e-05
52.5556,7.75622e-05
52.6056,7.7132e-05
52.6556,7.67054e-05
52.7056,7.62823e-05
52.7556,7.58627e-05
52.8056,7.54465e-05
52.8556,7.50337e-05
52.9056,7.46244e-05
52.9556,7.42183e-05
53.0056,7.38156e-05
53.0556,7.34161e-05
53.1056,7.30199e-05
53.1556,7.26269e-05
53.2056,7.2237e-05
53.2556,7.18503e-05
53.3056,7.14666e-05
53.3556,7.10861e-05
53.4056,7.07085e-05
53.4556,7.0334e-05
53.5056,6.99624e-05
53.5556,6.95938e-05
53.6056,6.9228e-05
53.6556,6.88652e-05
53.7056,6.85052e-05
53.7556,6.8148e-05
53.8056,6.77936e-05
53.8556,6.74419e-05
53.9056,6.7093e-05
53.9556,6.67468e-05
54.0056,6.64032e-05
54.0556,6.60623e-05
54.1056,6.57241e-05
54.1556,6.53884e-05
54.2056,6.50552e-05
54.2556,6.47247e-05
54.3056,6.43966e-05
54.3556,6.4071e-05
54.4056,6.37479e-05
54.4556,6.34272e-05
54.5056,6.31089e-05
54.5556,6.2793e-05
54.6056,6.24795e-05
54.6556,6.21684e-05
54.7056,6.18595e-05
54.7556,6.15529e-05
54.8056,6.12487e-05
54.8556,6.09466e-05
54.9056,6.06468e-05
54.9556,6.03492e-05
55.0056,6.00538e-05
55.0556,5.97605e-05
55.1056,5.94694e-05
55.1556,5.91805e-05
55.2056,5.88936e-05
55.2556,5.86088e-05
55.3056,5.8326e-05
55.3556,5.80453e-05
55.4056,5.77666e-05
55.4556,5.749e-05
55.5056,5.72153e-05
55.5556,5.69425e-05
55.6056,5.66718e-05
55.6556,5.64029e-05
55.7056,5.61359e-05
55.7556,5.58709e-05
55.8056,5.56077e-05
55.8556,5.53464e-05
55.9056,5.50869e-05
55.9556,5.48292e-05
56.0056,5.45733e-05
56.0556,5.43193e-05
56.1056,5.40669e-05
56.1556,5.38164e-05
56.2056,5.35676e-05
56.2556,5.33205e-05
56.3056,5.30751e-05
56.3556,5.28314e-05
56.4056,5.25893e-05
56.4556,5.2349e-05
56.5056,5.21103e-05
56.5556,5.18732e-05
56.6056,5.16377e-05
56.6556,5.14038e-05
56.7056,5.11715e-05
56.7556,5.09408e-05
56.8056,5.07116e-05
56.8556,5.0484e-05
56.9056,5.02579e-05
56.9556,5.00333e-05
57.0056,4.98102e-05
57.0556,4.95886e-05
57.1056,4.93685e-05
57.1556,4.91499e-05
57.2056,4.89327e-05
57.2556,4.87169e-05
57.3056,4.85026e-05
57.3556,4.82896e-05
57.4056,4.80781e-05
57.4556,4.7868e-05
57.5056,4.76592e-05
57.5556,4.74518e-05
57.6056,4.72457e-05
57.6556,4.7041e-05
57.7056,4.68376e-05
57.7556,4.66355e-05
57.8056,4.64348e-05
57.8556,4.62353e-05
57.9056,4.60371e-05
57.9556,4.58402e-05
58.0056,4.56445e-05
58.0556,4.54501e-05
58.1056,4.5257e-05
58.1556,4.5065e-05
58.2056,4.48743e-05
58.2556,4.46848e-05
58.3056,4.44965e-05
58.3556,4.43093e-05
58.4056,4.41234e-05
58.4556,4.39386e-05
58.5056,4.3755e-05
58.5556,4.35725e-05
58.6056,4.33912e-05
58.6556,4.3211e-05
58.7056,4.30319e-05
58.7556,4.28539e-05
58.8056,4.2677e-05
58.8556,4.25012e-05
58.9056,4.23265e-05
58.9556,4.21529e-05
59.0056,4.19804e-05
59.0556,4.18089e-05
59.1056,4.16384e-05
59.1556,4.1469e-05
59.2056,4.13006e-05
59.2556,4.11333e-05
59.3056,4.09669e-05
59.3556,4.08016e-05
59.4056,4.06373e-05
59.4556,4.04739e-05
59.5056,4.03116e-05
59.5556,4.01502e-05
59.6056,3.99898e-05
59.6556,3.98303e-05
59.7056,3.96718e-05
59.7556,3.95142e-05
59.8056,3.93576e-05
59.8556,3.92019e-05
59.9056,3.90471e-05
59.9556,3.88933e-05
60.0056,3.87403e-05
60.0556,3.85883e-05
60.1056,3.84371e-05
60.1556,3.82869e-05
60.2056,3.81375e-05
60.2556,3.79889e-05
60.3056,3.78413e-05
60.3556,3.76945e-05
60.4056,3.75486e-05
60.4556,3.74035e-05
60.5056,3.72592e-05
60.5556,3.71158e-05
60.6056,3.69732e-05
60.6556,3.68314e-05
60.7056,3.66904e-05
60.7556,3.65503e-05
60.8056,3.64109e-05
60.8556,3.62724e-05
60.9056,3.61346e-05
60.9556,3.59976e-05
61.0056,3.58614e-05
61.0556,3.5726e-05
61.1056,3.55913e-05
61.1556,3.54574e-05
61.2056,3.53242e-05
61.2556,3.51918e-05
61.3056,3.50602e-05
61.3556,3.49292e-05
61.4056,3.47991e-05
61.4556,3.46696e-05
61.5056,3.45408e-05
61.5556,3.44128e-05
61.6056,3.42855e-05
61.6556,3.41589e-05
61.7056,3.4033e-05
61.7556,3.39077e-05
61.8056,3.37832e-05
61.8556,3.36594e-05
61.9056,3.35362e-05
61.9556,3.34137e-05
62.0056,3.32919e-05
62.0556,3.31707e-05
62.1056,3.30502e-05
62.1556,3.29304e-05
62.2056,3.28112e-05
62.2556,3.26927e-05
62.3056,3.25748e-05
62.3556,3.24575e-05
62.4056,3.23409e-05
62.4556,3.22248e-05
62.5056,3.21095e-05
62.5556,3.19947e-05
62.6056,3.18805e-05
62.6556,3.1767e-05
62.7056,3.16541e-05
62.7556,3.15417e-05
62.8056,3.143e-05
62.8556,3.13189e-05
62.9056,3.12083e-05
62.9556,3.10983e-05
63.0056,3.09889e-05
63.0556,3.08801e-05
63.1056,3.07719e-05
63.1556,3.06642e-05
63.2056,3.05571e-05
63.2556,3.04505e-05
63.3056,3.03445e-05
63.3556,3.02391e-05
63.4056,3.01342e-05
63.4556,3.00299e-05
63.5056,2.99261e-05
63.5556,2.98228e-05
63.6056,2.972e-05
63.6556,2.96178e-05
63.7056,2.95162e-05
63.7556,2.9415e-05
63.8056,2.93144e-05
63.8556,2.92142e-05
63.9056,2.91146e-05
63.9556,2.90155e-05
64.0056,2.89169e-05
64.0556,2.88188e-05
64.1056,2.87212e-05
64.1556,2.86241e-05
64.2056,2.85275e-05
64.2556,2.84314e-05
64.3056,2.83358e-05
64.3556,2.82406e-05
64.4056,2.81459e-05
64.4556,2.80517e-05
64.5056,2.7958e-05
64.5556,2.78647e-05
64.6056,2.7772e-05
64.6556,2.76796e-05
64.7056,2.75877e-05
64.7556,2.74963e-05
64.8056,2.74054e-05
64.8556,2.73149e-05
64.9056,2.72248e-05
64.9556,2.71352e-05
65.0056,2.7046e-05
65.0556,2.69573e-05
65.1056,2.6869e-05
65.1556,2.67811e-05
65.2056,2.66937e-05
65.2556,2.66066e-05
65.3056,2.65201e-05
65.3556,2.64339e-05
65.4056,2.63481e-05
65.4556,2.62628e-05
65.5056,2.61779e-05
65.5556,2.60934e-05
65.6056,2.60093e-05
65.6556,2.59256e-05
65.7056,2.58423e-05
65.7556,2.57594e-05
65.8056,2.5677e-05
65.8556,2.55949e-05
65.9056,2.55132e-05
65.9556,2.54319e-05
66.0056,2.53509e-05
66.0556,2.52704e-05
66.1056,2.51902e-05
66.1556,2.51105e-05
66.2056,2.50311e-05
66.2556,2.49521e-05
66.3056,2.48734e-05
66.3556,2.47952e-05
66.4056,2.47173e-05
66.4556,2.46397e-05
66.5056,2.45625e-05
66.5556,2.44857e-05
66.6056,2.44093e-05
66.6556,2.43332e-05
66.7056,2.42575e-05
66.7556,2.41821e-05
66.8056,2.4107e-05
66.8556,2.40324e-05
66.9056,2.3958e-05
66.9556,2.3884e-05
67.0056,2.38104e-05
67.0556,2.37371e-05
67.1056,2.36641e-05
67.1556,2.35914e-05
67.2056,2.35191e-05
67.2556,2.34472e-05
67.3056,2.33755e-05
67.3556,2.33042e-05
67.4056,2.32332e-05
67.4556,2.31626e-05
67.5056,2.30922e-05
67.5556,2.30222e-05
67.6056,2.29525e-05
67.6556,2.28831e-05
67.7056,2.2814e-05
67.7556,2.27453e-05
67.8056,2.26768e-05
67.8556,2.26087e-05
67.9056,2.25408e-05
67.9556,2.24733e-05
68.0056,2.24061e-05
68.0556,2.23392e-05
68.1056,2.22725e-05
68.1556,2.22062e-05
68.2056,2.21402e-05
68.2556,2.20744e-05
68.3056,2.2009e-05
68.3556,2.19438e-05
68.4056,2.1879e-05
68.4556,2.18144e-05
68.5056,2.17501e-05
68.5556,2.16861e-05
68.6056,2.16223e-05
68.6556,2.15589e-05
68.7056,2.14957e-05
68.7556,2.14328e-05
68.8056,2.13702e-05
68.8556,2.13079e-05
68.9056,2.12458e-05
68.9556,2.1184e-05
69.0056,2.11225e-05
69.0556,2.10612e-05
69.1056,2.10002e-05
69.1556,2.09395e-05
69.2056,2.0879e-05
69.2556,2.08188e-05
69.3056,2.07588e-05
69.3556,2.06992e-05
69.4056,2.06397e-05
69.4556,2.05805e-05
69.5056,2.05216e-05
69.5556,2.0463e-05
69.6056,2.04045e-05
69.6556,2.03464e-05
69.7056,2.02884e-05
69.7556,2.02308e-05
69.8056,2.01733e-05
69.8556,2.01162e-05
69.9056,2.00592e-05
69.9556,2.00025e-05
70.0056,1.99461e-05
70.0556,1.98898e-05
70.1056,1.98339e-05
70.1556,1.97781e-05
70.2056,1.97226e-05
70.2556,1.96673e-05
70.3056,1.96123e-05
70.3556,1.95575e-05
70.4056,1.95029e-05
70.4556,1.94485e-05
70.5056,1.93944e-05
70.5556,1.93405e-05
70.6056,1.92868e-05
70.6556,1.92333e-05
70.7056,1.91801e-05
70.7556,1.91271e-05
70.8056,1.90743e-05
70.8556,1.90217e-05
70.9056,1.89694e-05
70.9556,1.89172e-05
71.0056,1.88653e-05
71.0556,1.88136e-05
71.1056,1.87621e-05
71.1556,1.87108e-05
71.2056,1.86597e-05
71.2556,1.86088e-05
71.3056,1.85581e-05
71.3556,1.85077e-05
71.4056,1.84574e-05
71.4556,1.84074e-05
71.5056,1.83575e-05
71.5556,1.83079e-05
71.6056,1.82584e-05
71.6556,1.82092e-05
71.7056,1.81602e-05
71.7556,1.81113e-05
71.8056,1.80627e-05
71.8556,1.80142e-05
71.9056,1.7966e-05
71.9556,1.79179e-05
72.0056,1.787e-05
72.0556,1.78223e-05
72.1056,1.77748e-05
72.1556,1.77275e-05
72.2056,1.76804e-05
72.2556,1.76335e-05
72.3056,1.75868e-05
72.3556,1.75402e-05
72.4056,1.74938e-05
72.4556,1.74477e-05
72.5056,1.74017e-05
72.5556,1.73558e-05
72.6056,1.73102e-05
72.6556,1.72647e-05
72.7056,1.72195e-05
72.7556,1.71744e-05
72.8056,1.71294e-05
72.8556,1.70847e-05
72.9056,1.70401e-05
72.9556,1.69957e-05
73.0056,1.69515e-05
73.0556,1.69074e-05
73.1056,1.68635e-05
73.1556,1.68198e-05
73.2056,1.67763e-05
73.2556,1.67329e-05
73.3056,1.66897e-05
73.3556,1.66467e-05
73.4056,1.66038e-05
73.4556,1.65611e-05
73.5056,1.65185e-05
73.5556,1.64762e-05
73.6056,1.6434e-05
73.6556,1.63919e-05
73.7056,1.635e-05
73.7556,1.63083e-05
73.8056,1.62667e-05
73.8556,1.62253e-05