File: kim_2002/xrd/curve_total_fit.dat
32.4056,0.0151622
32.4556,0.0154046
32.5056,0.0156644
32.5556,0.0159435
32.6056,0.0162436
32.6556,0.0165671
32.7056,0.0169163
32.7556,0.017294
32.8056,0.0177036
32.8556,0.0181485
32.9056,0.0186331
32.9556,0.0191622
33.0056,0.0197413
33.0556,0.020377
33.1056,0.0210768
33.1556,0.0218497
33.2056,0.0227061
33.2556,0.0236587
33.3056,0.0247221
33.3556,0.0259143
33.4056,0.0272568
33.4556,0.0287759
33.5056,0.0305038
33.5556,0.0324806
33.6056,0.0347559
33.6556,0.0373928
33.7056,0.0404715
33.7556,0.0440959
33.8056,0.0484016
33.8556,0.0535689
33.9056,0.0598413
33.9556,0.0675532
34.0056,0.0771737
34.0556,0.0893756
34.1056,0.105149
34.1556,0.12599
34.2056,0.154238
34.2556,0.193671
34.3056,0.250613
34.3556,0.335987
34.4056,0.468894
34.4556,0.680827
34.5056,1.00776
34.5556,1.41098
34.6056,1.60915
34.6556,1.36708
34.7056,0.963812
34.7556,0.651038
34.8056,0.450235
34.8556,0.324163
34.9056,0.24285
34.9556,0.188375
35.0056,0.150495
35.0556,0.12326
35.1056,0.103103
35.1556,0.0878069
35.2056,0.0759462
35.2556,0.0665757
35.3056,0.0590509
35.3556,0.0529212
35.4056,0.0478644
35.4556,0.0436456
35.5056,0.0400904
35.5556,0.0370675
35.6056,0.0344761
35.6556,0.0322381
35.7056,0.0302925
35.7556,0.0285905
35.8056,0.0270933
35.8556,0.0257694
35.9056,0.0245931
35.9556,0.0235433
36.0056,0.0226026
36.0556,0.0217564
36.1056,0.0209924
36.1556,0.0203004
36.2056,0.0196717
36.2556,0.0190987
36.3056,0.018575
36.3556,0.0180952
36.4056,0.0176546
36.4556,0.0172489
36.5056,0.0168746
36.5556,0.0165285
36.6056,0.0162078
36.6556,0.0159102
36.7056,0.0156335
36.7556,0.0153757
36.8056,0.0151352
36.8556,0.0149105
36.9056,0.0147002
36.9556,0.0145031
37.0056,0.0143182
37.0556,0.0141444
37.1056,0.0139809
37.1556,0.0138268
37.2056,0.0136815
37.2556,0.0135444
37.3056,0.0134147
37.3556,0.0132921
37.4056,0.0131759
37.4556,0.0130658
37.5056,0.0129613
37.5556,0.012862
37.6056,0.0127676
37.6556,0.0126779
37.7056,0.0125924
37.7556,0.012511
37.8056,0.0124333
37.8556,0.0123592
37.9056,0.0122884
37.9556,0.0122207
38.0056,0.0121561
38.0556,0.0120941
38.1056,0.0120349
38.1556,0.0119781
38.2056,0.0119236
38.2556,0.0118714
38.3056,0.0118212
38.3556,0.0117731
38.4056,0.0117268
38.4556,0.0116823
38.5056,0.0116395
38.5556,0.0115984
38.6056,0.0115587
38.6556,0.0115205
38.7056,0.0114837
38.7556,0.0114483
38.8056,0.011414
38.8556,0.011381
38.9056,0.0113491
38.9556,0.0113183
39.0056,0.0112886
39.0556,0.0112598
39.1056,0.011232
39.1556,0.0112051
39.2056,0.0111791
39.2556,0.0111539
39.3056,0.0111295
39.3556,0.0111059
39.4056,0.011083
39.4556,0.0110608
39.5056,0.0110393
39.5556,0.0110185
39.6056,0.0109982
39.6556,0.0109786
39.7056,0.0109595
39.7556,0.010941
39.8056,0.010923
39.8556,0.0109055
39.9056,0.0108885
39.9556,0.010872
40.0056,0.010856
40.0556,0.0108403
40.1056,0.0108252
40.1556,0.0108104
40.2056,0.010796
40.2556,0.010782
40.3056,0.0107683
40.3556,0.010755
40.4056,0.0107421
40.4556,0.0107295
40.5056,0.0107172
40.5556,0.0107052
40.6056,0.0106935
40.6556,0.0106821
40.7056,0.0106709
40.7556,0.0106601
40.8056,0.0106495
40.8556,0.0106392
40.9056,0.0106291
40.9556,0.0106192
41.0056,0.0106096
41.0556,0.0106002
41.1056,0.010591
41.1556,0.010582
41.2056,0.0105732
41.2556,0.0105646
41.3056,0.0105562
41.3556,0.010548
41.4056,0.01054
41.4556,0.0105322
41.5056,0.0105245
41.5556,0.010517
41.6056,0.0105096
41.6556,0.0105024
41.7056,0.0104954
41.7556,0.0104885
41.8056,0.0104817
41.8556,0.0104751
41.9056,0.0104686
41.9556,0.0104623
42.0056,0.0104561
42.0556,0.01045
42.1056,0.010444
42.1556,0.0104381
42.2056,0.0104324
42.2556,0.0104268
42.3056,0.0104212
42.3556,0.0104158
42.4056,0.0104105
42.4556,0.0104053
42.5056,0.0104002
42.5556,0.0103952
42.6056,0.0103902
42.6556,0.0103854
42.7056,0.0103807
42.7556,0.010376
42.8056,0.0103715
42.8556,0.010367
42.9056,0.0103626
42.9556,0.0103582
43.0056,0.010354
43.0556,0.0103498
43.1056,0.0103457
43.1556,0.0103417
43.2056,0.0103377
43.2556,0.0103338
43.3056,0.01033
43.3556,0.0103262
43.4056,0.0103226
43.4556,0.0103189
43.5056,0.0103153
43.5556,0.0103118
43.6056,0.0103084
43.6556,0.010305
43.7056,0.0103016
43.7556,0.0102984
43.8056,0.0102951
43.8556,0.0102919
43.9056,0.0102888
43.9556,0.0102857
44.0056,0.0102827
44.0556,0.0102797
44.1056,0.0102768
44.1556,0.0102739
44.2056,0.0102711
44.2556,0.0102683
44.3056,0.0102655
44.3556,0.0102628
44.4056,0.0102601
44.4556,0.0102575
44.5056,0.0102549
44.5556,0.0102523
44.6056,0.0102498
44.6556,0.0102473
44.7056,0.0102449
44.7556,0.0102425
44.8056,0.0102401
44.8556,0.0102378
44.9056,0.0102355
44.9556,0.0102332
45.0056,0.010231
45.0556,0.0102288
45.1056,0.0102266
45.1556,0.0102245
45.2056,0.0102223
45.2556,0.0102203
45.3056,0.0102182
45.3556,0.0102162
45.4056,0.0102142
45.4556,0.0102122
45.5056,0.0102103
45.5556,0.0102084
45.6056,0.0102065
45.6556,0.0102046
45.7056,0.0102028
45.7556,0.010201
45.8056,0.0101992
45.8556,0.0101974
45.9056,0.0101957
45.9556,0.0101939
46.0056,0.0101922
46.0556,0.0101906
46.1056,0.0101889
46.1556,0.0101873
46.2056,0.0101857
46.2556,0.0101841
46.3056,0.0101825
46.3556,0.010181
46.4056,0.0101794
46.4556,0.0101779
46.5056,0.0101764
46.5556,0.010175
46.6056,0.0101735
46.6556,0.0101721
46.7056,0.0101707
46.7556,0.0101693
46.8056,0.0101679
46.8556,0.0101665
46.9056,0.0101652
46.9556,0.0101638
47.0056,0.0101625
47.0556,0.0101612
47.1056,0.0101599
47.1556,0.0101586
47.2056,0.0101574
47.2556,0.0101561
47.3056,0.0101549
47.3556,0.0101537
47.4056,0.0101525
47.4556,0.0101513
47.5056,0.0101502
47.5556,0.010149
47.6056,0.0101478
47.6556,0.0101467
47.7056,0.0101456
47.7556,0.0101445
47.8056,0.0101434
47.8556,0.0101423
47.9056,0.0101413
47.9556,0.0101402
48.0056,0.0101392
48.0556,0.0101381
48.1056,0.0101371
48.1556,0.0101361
48.2056,0.0101351
48.2556,0.0101341
48.3056,0.0101331
48.3556,0.0101322
48.4056,0.0101312
48.4556,0.0101303
48.5056,0.0101293
48.5556,0.0101284
48.6056,0.0101275
48.6556,0.0101266
48.7056,0.0101257
48.7556,0.0101248
48.8056,0.0101239
48.8556,0.0101231
48.9056,0.0101222
48.9556,0.0101213
49.0056,0.0101205
49.0556,0.0101197
49.1056,0.0101188
49.1556,0.010118
49.2056,0.0101172
49.2556,0.0101164
49.3056,0.0101156
49.3556,0.0101149
49.4056,0.0101141
49.4556,0.0101133
49.5056,0.0101126
49.5556,0.0101118
49.6056,0.0101111
49.6556,0.0101103
49.7056,0.0101096
49.7556,0.0101089
49.8056,0.0101082
49.8556,0.0101075
49.9056,0.0101067
49.9556,0.0101061
50.0056,0.0101054
50.0556,0.0101047
50.1056,0.010104
50.1556,0.0101033
50.2056,0.0101027
50.2556,0.010102
50.3056,0.0101014
50.3556,0.0101007
50.4056,0.0101001
50.4556,0.0100995
50.5056,0.0100988
50.5556,0.0100982
50.6056,0.0100976
50.6556,0.010097
50.7056,0.0100964
50.7556,0.0100958
50.8056,0.0100952
50.8556,0.0100946
50.9056,0.0100941
50.9556,0.0100935
51.0056,0.0100929
51.0556,0.0100923
51.1056,0.0100918
51.1556,0.0100912
51.2056,0.0100907
51.2556,0.0100901
51.3056,0.0100896
51.3556,0.0100891
51.4056,0.0100885
51.4556,0.010088
51.5056,0.0100875
51.5556,0.010087
51.6056,0.0100865
51.6556,0.010086
51.7056,0.0100855
51.7556,0.010085
51.8056,0.0100845
51.8556,0.010084
51.9056,0.0100835
51.9556,0.010083
52.0056,0.0100825
52.0556,0.0100821
52.1056,0.0100816
52.1556,0.0100811
52.2056,0.0100807
52.2556,0.0100802
52.3056,0.0100798
52.3556,0.0100793
52.4056,0.0100789
52.4556,0.0100784
52.5056,0.010078
52.5556,0.0100776
52.6056,0.0100771
52.6556,0.0100767
52.7056,0.0100763
52.7556,0.0100759
52.8056,0.0100754
52.8556,0.010075
52.9056,0.0100746
52.9556,0.0100742
53.0056,0.0100738
53.0556,0.0100734
53.1056,0.010073
53.1556,0.0100726
53.2056,0.0100722
53.2556,0.0100719
53.3056,0.0100715
53.3556,0.0100711
53.4056,0.0100707
53.4556,0.0100703
53.5056,0.01007
53.5556,0.0100696
53.6056,0.0100692
53.6556,0.0100689
53.7056,0.0100685
53.7556,0.0100681
53.8056,0.0100678
53.8556,0.0100674
53.9056,0.0100671
53.9556,0.0100667
54.0056,0.0100664
54.0556,0.0100661
54.1056,0.0100657
54.1556,0.0100654
54.2056,0.0100651
54.2556,0.0100647
54.3056,0.0100644
54.3556,0.0100641
54.4056,0.0100637
54.4556,0.0100634
54.5056,0.0100631
54.5556,0.0100628
54.6056,0.0100625
54.6556,0.0100622
54.7056,0.0100619
54.7556,0.0100616
54.8056,0.0100612
54.8556,0.0100609
54.9056,0.0100606
54.9556,0.0100603
55.0056,0.0100601
55.0556,0.0100598
55.1056,0.0100595
55.1556,0.0100592
55.2056,0.0100589
55.2556,0.0100586
55.3056,0.0100583
55.3556,0.010058
55.4056,0.0100578
55.4556,0.0100575
55.5056,0.0100572
55.5556,0.0100569
55.6056,0.0100567
55.6556,0.0100564
55.7056,0.0100561
55.7556,0.0100559
55.8056,0.0100556
55.8556,0.0100553
55.9056,0.0100551
55.9556,0.0100548
56.0056,0.0100546
56.0556,0.0100543
56.1056,0.0100541
56.1556,0.0100538
56.2056,0.0100536
56.2556,0.0100533
56.3056,0.0100531
56.3556,0.0100528
56.4056,0.0100526
56.4556,0.0100523
56.5056,0.0100521
56.5556,0.0100519
56.6056,0.0100516
56.6556,0.0100514
56.7056,0.0100512
56.7556,0.0100509
56.8056,0.0100507
56.8556,0.0100505
56.9056,0.0100503
56.9556,0.01005
57.0056,0.0100498
57.0556,0.0100496
57.1056,0.0100494
57.1556,0.0100491
57.2056,0.0100489
57.2556,0.0100487
57.3056,0.0100485
57.3556,0.0100483
57.4056,0.0100481
57.4556,0.0100479
57.5056,0.0100477
57.5556,0.0100475
57.6056,0.0100472
57.6556,0.010047
57.7056,0.0100468
57.7556,0.0100466
57.8056,0.0100464
57.8556,0.0100462
57.9056,0.010046
57.9556,0.0100458
58.0056,0.0100456
58.0556,0.0100455
58.1056,0.0100453
58.1556,0.0100451
58.2056,0.0100449
58.2556,0.0100447
58.3056,0.0100445
58.3556,0.0100443
58.4056,0.0100441
58.4556,0.0100439
58.5056,0.0100438
58.5556,0.0100436
58.6056,0.0100434
58.6556,0.0100432
58.7056,0.010043
58.7556,0.0100429
58.8056,0.0100427
58.8556,0.0100425
58.9056,0.0100423
58.9556,0.0100422
59.0056,0.010042
59.0556,0.0100418
59.1056,0.0100416
59.1556,0.0100415
59.2056,0.0100413
59.2556,0.0100411
59.3056,0.010041
59.3556,0.0100408
59.4056,0.0100406
59.4556,0.0100405
59.5056,0.0100403
59.5556,0.0100402
59.6056,0.01004
59.6556,0.0100398
59.7056,0.0100397
59.7556,0.0100395
59.8056,0.0100394
59.8556,0.0100392
59.9056,0.010039
59.9556,0.0100389
60.0056,0.0100387
60.0556,0.0100386
60.1056,0.0100384
60.1556,0.0100383
60.2056,0.0100381
60.2556,0.010038
60.3056,0.0100378
60.3556,0.0100377
60.4056,0.0100375
60.4556,0.0100374
60.5056,0.0100373
60.5556,0.0100371
60.6056,0.010037
60.6556,0.0100368
60.7056,0.0100367
60.7556,0.0100366
60.8056,0.0100364
60.8556,0.0100363
60.9056,0.0100361
60.9556,0.010036
61.0056,0.0100359
61.0556,0.0100357
61.1056,0.0100356
61.1556,0.0100355
61.2056,0.0100353
61.2556,0.0100352
61.3056,0.0100351
61.3556,0.0100349
61.4056,0.0100348
61.4556,0.0100347
61.5056,0.0100345
61.5556,0.0100344
61.6056,0.0100343
61.6556,0.0100342
61.7056,0.010034
61.7556,0.0100339
61.8056,0.0100338
61.8556,0.0100337
61.9056,0.0100335
61.9556,0.0100334
62.0056,0.0100333
62.0556,0.0100332
62.1056,0.0100331
62.1556,0.0100329
62.2056,0.0100328
62.2556,0.0100327
62.3056,0.0100326
62.3556,0.0100325
62.4056,0.0100323
62.4556,0.0100322
62.5056,0.0100321
62.5556,0.010032
62.6056,0.0100319
62.6556,0.0100318
62.7056,0.0100317
62.7556,0.0100315
62.8056,0.0100314
62.8556,0.0100313
62.9056,0.0100312
62.9556,0.0100311
63.0056,0.010031
63.0556,0.0100309
63.1056,0.0100308
63.1556,0.0100307
63.2056,0.0100306
63.2556,0.0100305
63.3056,0.0100303
63.3556,0.0100302
63.4056,0.0100301
63.4556,0.01003
63.5056,0.0100299
63.5556,0.0100298
63.6056,0.0100297
63.6556,0.0100296
63.7056,0.0100295
63.7556,0.0100294
63.8056,0.0100293
63.8556,0.0100292
63.9056,0.0100291
63.9556,0.010029
64.0056,0.0100289
64.0556,0.0100288
64.1056,0.0100287
64.1556,0.0100286
64.2056,0.0100285
64.2556,0.0100284
64.3056,0.0100283
64.3556,0.0100282
64.4056,0.0100281
64.4556,0.0100281
64.5056,0.010028
64.5556,0.0100279
64.6056,0.0100278
64.6556,0.0100277
64.7056,0.0100276
64.7556,0.0100275
64.8056,0.0100274
64.8556,0.0100273
64.9056,0.0100272
64.9556,0.0100271
65.0056,0.010027
65.0556,0.010027
65.1056,0.0100269
65.1556,0.0100268
65.2056,0.0100267
65.2556,0.0100266
65.3056,0.0100265
65.3556,0.0100264
65.4056,0.0100263
65.4556,0.0100263
65.5056,0.0100262
65.5556,0.0100261
65.6056,0.010026
65.6556,0.0100259
65.7056,0.0100258
65.7556,0.0100258
65.8056,0.0100257
65.8556,0.0100256
65.9056,0.0100255
65.9556,0.0100254
66.0056,0.0100254
66.0556,0.0100253
66.1056,0.0100252
66.1556,0.0100251
66.2056,0.010025
66.2556,0.010025
66.3056,0.0100249
66.3556,0.0100248
66.4056,0.0100247
66.4556,0.0100246
66.5056,0.0100246
66.5556,0.0100245
66.6056,0.0100244
66.6556,0.0100243
66.7056,0.0100243
66.7556,0.0100242
66.8056,0.0100241
66.8556,0.010024
66.9056,0.010024
66.9556,0.0100239
67.0056,0.0100238
67.0556,0.0100237
67.1056,0.0100237
67.1556,0.0100236
67.2056,0.0100235
67.2556,0.0100234
67.3056,0.0100234
67.3556,0.0100233
67.4056,0.0100232
67.4556,0.0100232
67.5056,0.0100231
67.5556,0.010023
67.6056,0.010023
67.6556,0.0100229
67.7056,0.0100228
67.7556,0.0100227
67.8056,0.0100227
67.8556,0.0100226
67.9056,0.0100225
67.9556,0.0100225
68.0056,0.0100224
68.0556,0.0100223
68.1056,0.0100223
68.1556,0.0100222
68.2056,0.0100221
68.2556,0.0100221
68.3056,0.010022
68.3556,0.0100219
68.4056,0.0100219
68.4556,0.0100218
68.5056,0.0100218
68.5556,0.0100217
68.6056,0.0100216
68.6556,0.0100216
68.7056,0.0100215
68.7556,0.0100214
68.8056,0.0100214
68.8556,0.0100213
68.9056,0.0100212
68.9556,0.0100212
69.0056,0.0100211
69.0556,0.0100211
69.1056,0.010021
69.1556,0.0100209
69.2056,0.0100209
69.2556,0.0100208
69.3056,0.0100208
69.3556,0.0100207
69.4056,0.0100206
69.4556,0.0100206
69.5056,0.0100205
69.5556,0.0100205
69.6056,0.0100204
69.6556,0.0100203
69.7056,0.0100203
69.7556,0.0100202
69.8056,0.0100202
69.8556,0.0100201
69.9056,0.0100201
69.9556,0.01002
70.0056,0.0100199
70.0556,0.0100199
70.1056,0.0100198
70.1556,0.0100198
70.2056,0.0100197
70.2556,0.0100197
70.3056,0.0100196
70.3556,0.0100196
70.4056,0.0100195
70.4556,0.0100194
70.5056,0.0100194
70.5556,0.0100193
70.6056,0.0100193
70.6556,0.0100192
70.7056,0.0100192
70.7556,0.0100191
70.8056,0.0100191
70.8556,0.010019
70.9056,0.010019
70.9556,0.0100189
71.0056,0.0100189
71.0556,0.0100188
71.1056,0.0100188
71.1556,0.0100187
71.2056,0.0100187
71.2556,0.0100186
71.3056,0.0100186
71.3556,0.0100185
71.4056,0.0100185
71.4556,0.0100184
71.5056,0.0100184
71.5556,0.0100183
71.6056,0.0100183
71.6556,0.0100182
71.7056,0.0100182
71.7556,0.0100182
71.8056,0.0100183
71.8556,0.0100186
71.9056,0.0100195
71.9556,0.0100218
72.0056,0.0100272
72.0556,0.0100395
72.1056,0.010066
72.1556,0.0101203
72.2056,0.0102266
72.2556,0.0104251
72.3056,0.0107785
72.3556,0.0113779
72.4056,0.0123464
72.4556,0.0138351
72.5056,0.0160097
72.5556,0.0190236
72.6056,0.0229785
72.6556,0.0278778
72.7056,0.0335836
72.7556,0.0397916
72.8056,0.0460372
72.8556,0.051742
72.9056,0.0562974
72.9556,0.0591698
73.0056,0.0600032
73.0556,0.0586916
73.1056,0.0554012
73.1556,0.0505359
73.2056,0.0446556
73.2556,0.038371
73.3056,0.0322407
73.3556,0.0266959
73.4056,0.0220029
73.4556,0.0182644
73.5056,0.0154508
73.5556,0.013445
73.6056,0.0120876
73.6556,0.0112144
73.7056,0.0106799
73.7556,0.0103682
73.8056,0.010195
73.8556,0.0101031