File: kim_2002/xrd/curve_2_fit.dat
32.4056,0.0
32.4556,0.0
32.5056,0.0
32.5556,0.0
32.6056,0.0
32.6556,0.0
32.7056,0.0
32.7556,0.0
32.8056,0.0
32.8556,0.0
32.9056,0.0
32.9556,0.0
33.0056,0.0
33.0556,0.0
33.1056,0.0
33.1556,0.0
33.2056,0.0
33.2556,0.0
33.3056,0.0
33.3556,0.0
33.4056,0.0
33.4556,0.0
33.5056,0.0
33.5556,0.0
33.6056,0.0
33.6556,0.0
33.7056,0.0
33.7556,0.0
33.8056,0.0
33.8556,0.0
33.9056,0.0
33.9556,0.0
34.0056,0.0
34.0556,0.0
34.1056,0.0
34.1556,0.0
34.2056,0.0
34.2556,0.0
34.3056,0.0
34.3556,0.0
34.4056,0.0
34.4556,0.0
34.5056,0.0
34.5556,0.0
34.6056,0.0
34.6556,0.0
34.7056,0.0
34.7556,0.0
34.8056,0.0
34.8556,0.0
34.9056,0.0
34.9556,0.0
35.0056,0.0
35.0556,0.0
35.1056,0.0
35.1556,0.0
35.2056,0.0
35.2556,0.0
35.3056,0.0
35.3556,0.0
35.4056,0.0
35.4556,0.0
35.5056,0.0
35.5556,0.0
35.6056,0.0
35.6556,0.0
35.7056,0.0
35.7556,0.0
35.8056,0.0
35.8556,0.0
35.9056,0.0
35.9556,0.0
36.0056,0.0
36.0556,0.0
36.1056,0.0
36.1556,0.0
36.2056,0.0
36.2556,0.0
36.3056,0.0
36.3556,0.0
36.4056,0.0
36.4556,0.0
36.5056,0.0
36.5556,0.0
36.6056,0.0
36.6556,0.0
36.7056,0.0
36.7556,0.0
36.8056,0.0
36.8556,0.0
36.9056,0.0
36.9556,0.0
37.0056,0.0
37.0556,0.0
37.1056,0.0
37.1556,0.0
37.2056,0.0
37.2556,0.0
37.3056,0.0
37.3556,0.0
37.4056,0.0
37.4556,0.0
37.5056,0.0
37.5556,0.0
37.6056,0.0
37.6556,0.0
37.7056,0.0
37.7556,0.0
37.8056,0.0
37.8556,0.0
37.9056,0.0
37.9556,0.0
38.0056,0.0
38.0556,0.0
38.1056,0.0
38.1556,0.0
38.2056,0.0
38.2556,0.0
38.3056,0.0
38.3556,0.0
38.4056,0.0
38.4556,0.0
38.5056,0.0
38.5556,0.0
38.6056,0.0
38.6556,0.0
38.7056,0.0
38.7556,0.0
38.8056,0.0
38.8556,0.0
38.9056,0.0
38.9556,0.0
39.0056,0.0
39.0556,0.0
39.1056,0.0
39.1556,0.0
39.2056,0.0
39.2556,0.0
39.3056,0.0
39.3556,0.0
39.4056,0.0
39.4556,0.0
39.5056,0.0
39.5556,0.0
39.6056,0.0
39.6556,0.0
39.7056,0.0
39.7556,0.0
39.8056,0.0
39.8556,0.0
39.9056,0.0
39.9556,0.0
40.0056,0.0
40.0556,0.0
40.1056,0.0
40.1556,0.0
40.2056,0.0
40.2556,0.0
40.3056,0.0
40.3556,0.0
40.4056,0.0
40.4556,0.0
40.5056,0.0
40.5556,0.0
40.6056,0.0
40.6556,0.0
40.7056,0.0
40.7556,0.0
40.8056,0.0
40.8556,0.0
40.9056,0.0
40.9556,0.0
41.0056,0.0
41.0556,0.0
41.1056,0.0
41.1556,0.0
41.2056,0.0
41.2556,0.0
41.3056,0.0
41.3556,0.0
41.4056,0.0
41.4556,0.0
41.5056,0.0
41.5556,0.0
41.6056,0.0
41.6556,0.0
41.7056,0.0
41.7556,0.0
41.8056,0.0
41.8556,0.0
41.9056,0.0
41.9556,0.0
42.0056,0.0
42.0556,0.0
42.1056,0.0
42.1556,0.0
42.2056,0.0
42.2556,0.0
42.3056,0.0
42.3556,0.0
42.4056,0.0
42.4556,0.0
42.5056,0.0
42.5556,0.0
42.6056,0.0
42.6556,0.0
42.7056,0.0
42.7556,0.0
42.8056,0.0
42.8556,0.0
42.9056,0.0
42.9556,0.0
43.0056,0.0
43.0556,0.0
43.1056,0.0
43.1556,0.0
43.2056,0.0
43.2556,0.0
43.3056,0.0
43.3556,0.0
43.4056,0.0
43.4556,0.0
43.5056,0.0
43.5556,0.0
43.6056,0.0
43.6556,0.0
43.7056,0.0
43.7556,0.0
43.8056,0.0
43.8556,0.0
43.9056,0.0
43.9556,0.0
44.0056,0.0
44.0556,0.0
44.1056,0.0
44.1556,0.0
44.2056,0.0
44.2556,0.0
44.3056,0.0
44.3556,0.0
44.4056,0.0
44.4556,0.0
44.5056,0.0
44.5556,0.0
44.6056,0.0
44.6556,0.0
44.7056,0.0
44.7556,0.0
44.8056,0.0
44.8556,0.0
44.9056,0.0
44.9556,0.0
45.0056,0.0
45.0556,0.0
45.1056,0.0
45.1556,0.0
45.2056,0.0
45.2556,0.0
45.3056,0.0
45.3556,0.0
45.4056,0.0
45.4556,0.0
45.5056,0.0
45.5556,0.0
45.6056,0.0
45.6556,0.0
45.7056,0.0
45.7556,0.0
45.8056,0.0
45.8556,0.0
45.9056,0.0
45.9556,0.0
46.0056,0.0
46.0556,0.0
46.1056,0.0
46.1556,0.0
46.2056,0.0
46.2556,0.0
46.3056,0.0
46.3556,0.0
46.4056,0.0
46.4556,0.0
46.5056,0.0
46.5556,0.0
46.6056,0.0
46.6556,0.0
46.7056,0.0
46.7556,0.0
46.8056,0.0
46.8556,0.0
46.9056,0.0
46.9556,0.0
47.0056,0.0
47.0556,0.0
47.1056,0.0
47.1556,0.0
47.2056,0.0
47.2556,0.0
47.3056,0.0
47.3556,0.0
47.4056,0.0
47.4556,0.0
47.5056,0.0
47.5556,0.0
47.6056,0.0
47.6556,0.0
47.7056,0.0
47.7556,0.0
47.8056,0.0
47.8556,0.0
47.9056,0.0
47.9556,0.0
48.0056,0.0
48.0556,0.0
48.1056,0.0
48.1556,0.0
48.2056,0.0
48.2556,0.0
48.3056,0.0
48.3556,0.0
48.4056,0.0
48.4556,0.0
48.5056,0.0
48.5556,0.0
48.6056,0.0
48.6556,0.0
48.7056,0.0
48.7556,0.0
48.8056,0.0
48.8556,0.0
48.9056,0.0
48.9556,0.0
49.0056,0.0
49.0556,0.0
49.1056,0.0
49.1556,0.0
49.2056,0.0
49.2556,0.0
49.3056,0.0
49.3556,0.0
49.4056,0.0
49.4556,0.0
49.5056,0.0
49.5556,0.0
49.6056,0.0
49.6556,0.0
49.7056,0.0
49.7556,0.0
49.8056,0.0
49.8556,0.0
49.9056,0.0
49.9556,0.0
50.0056,0.0
50.0556,0.0
50.1056,0.0
50.1556,0.0
50.2056,0.0
50.2556,0.0
50.3056,0.0
50.3556,0.0
50.4056,0.0
50.4556,0.0
50.5056,0.0
50.5556,0.0
50.6056,0.0
50.6556,0.0
50.7056,0.0
50.7556,0.0
50.8056,0.0
50.8556,0.0
50.9056,0.0
50.9556,0.0
51.0056,0.0
51.0556,0.0
51.1056,0.0
51.1556,0.0
51.2056,0.0
51.2556,0.0
51.3056,0.0
51.3556,0.0
51.4056,0.0
51.4556,0.0
51.5056,0.0
51.5556,0.0
51.6056,0.0
51.6556,0.0
51.7056,0.0
51.7556,0.0
51.8056,0.0
51.8556,0.0
51.9056,0.0
51.9556,0.0
52.0056,0.0
52.0556,0.0
52.1056,0.0
52.1556,0.0
52.2056,0.0
52.2556,0.0
52.3056,0.0
52.3556,0.0
52.4056,0.0
52.4556,0.0
52.5056,0.0
52.5556,0.0
52.6056,0.0
52.6556,0.0
52.7056,0.0
52.7556,0.0
52.8056,0.0
52.8556,0.0
52.9056,0.0
52.9556,0.0
53.0056,0.0
53.0556,0.0
53.1056,0.0
53.1556,0.0
53.2056,0.0
53.2556,0.0
53.3056,0.0
53.3556,0.0
53.4056,0.0
53.4556,0.0
53.5056,0.0
53.5556,0.0
53.6056,0.0
53.6556,0.0
53.7056,0.0
53.7556,0.0
53.8056,0.0
53.8556,0.0
53.9056,0.0
53.9556,0.0
54.0056,0.0
54.0556,0.0
54.1056,0.0
54.1556,0.0
54.2056,0.0
54.2556,0.0
54.3056,0.0
54.3556,0.0
54.4056,0.0
54.4556,0.0
54.5056,0.0
54.5556,0.0
54.6056,0.0
54.6556,0.0
54.7056,0.0
54.7556,0.0
54.8056,0.0
54.8556,0.0
54.9056,0.0
54.9556,0.0
55.0056,0.0
55.0556,0.0
55.1056,0.0
55.1556,0.0
55.2056,0.0
55.2556,0.0
55.3056,0.0
55.3556,0.0
55.4056,0.0
55.4556,0.0
55.5056,0.0
55.5556,0.0
55.6056,0.0
55.6556,0.0
55.7056,0.0
55.7556,0.0
55.8056,0.0
55.8556,0.0
55.9056,0.0
55.9556,0.0
56.0056,0.0
56.0556,0.0
56.1056,0.0
56.1556,0.0
56.2056,0.0
56.2556,0.0
56.3056,0.0
56.3556,0.0
56.4056,0.0
56.4556,0.0
56.5056,0.0
56.5556,0.0
56.6056,0.0
56.6556,0.0
56.7056,0.0
56.7556,0.0
56.8056,0.0
56.8556,0.0
56.9056,0.0
56.9556,0.0
57.0056,0.0
57.0556,0.0
57.1056,0.0
57.1556,0.0
57.2056,0.0
57.2556,0.0
57.3056,0.0
57.3556,0.0
57.4056,0.0
57.4556,0.0
57.5056,0.0
57.5556,0.0
57.6056,0.0
57.6556,0.0
57.7056,0.0
57.7556,0.0
57.8056,0.0
57.8556,0.0
57.9056,0.0
57.9556,0.0
58.0056,0.0
58.0556,0.0
58.1056,0.0
58.1556,0.0
58.2056,0.0
58.2556,0.0
58.3056,0.0
58.3556,0.0
58.4056,0.0
58.4556,0.0
58.5056,0.0
58.5556,0.0
58.6056,0.0
58.6556,0.0
58.7056,0.0
58.7556,0.0
58.8056,0.0
58.8556,0.0
58.9056,0.0
58.9556,0.0
59.0056,0.0
59.0556,0.0
59.1056,0.0
59.1556,0.0
59.2056,0.0
59.2556,0.0
59.3056,0.0
59.3556,0.0
59.4056,0.0
59.4556,0.0
59.5056,0.0
59.5556,0.0
59.6056,0.0
59.6556,0.0
59.7056,0.0
59.7556,0.0
59.8056,0.0
59.8556,0.0
59.9056,0.0
59.9556,0.0
60.0056,0.0
60.0556,0.0
60.1056,0.0
60.1556,0.0
60.2056,0.0
60.2556,0.0
60.3056,0.0
60.3556,0.0
60.4056,0.0
60.4556,0.0
60.5056,0.0
60.5556,0.0
60.6056,0.0
60.6556,0.0
60.7056,0.0
60.7556,0.0
60.8056,0.0
60.8556,0.0
60.9056,0.0
60.9556,0.0
61.0056,0.0
61.0556,0.0
61.1056,0.0
61.1556,0.0
61.2056,0.0
61.2556,0.0
61.3056,0.0
61.3556,0.0
61.4056,0.0
61.4556,0.0
61.5056,0.0
61.5556,0.0
61.6056,0.0
61.6556,0.0
61.7056,0.0
61.7556,0.0
61.8056,0.0
61.8556,0.0
61.9056,0.0
61.9556,0.0
62.0056,0.0
62.0556,0.0
62.1056,0.0
62.1556,0.0
62.2056,0.0
62.2556,0.0
62.3056,0.0
62.3556,0.0
62.4056,0.0
62.4556,0.0
62.5056,0.0
62.5556,0.0
62.6056,0.0
62.6556,0.0
62.7056,0.0
62.7556,0.0
62.8056,0.0
62.8556,0.0
62.9056,0.0
62.9556,0.0
63.0056,0.0
63.0556,0.0
63.1056,0.0
63.1556,0.0
63.2056,0.0
63.2556,0.0
63.3056,0.0
63.3556,0.0
63.4056,0.0
63.4556,0.0
63.5056,0.0
63.5556,0.0
63.6056,0.0
63.6556,0.0
63.7056,0.0
63.7556,5e-324
63.8056,1.0084e-320
63.8556,2.88648e-317
63.9056,7.91217e-314
63.9556,2.0767e-310
64.0056,5.21916e-307
64.0556,1.25597e-303
64.1056,2.89406e-300
64.1556,6.38538e-297
64.2056,1.34901e-293
64.2556,2.72896e-290
64.3056,5.286e-287
64.3556,9.8041e-284
64.4056,1.74116e-280
64.4556,2.96088e-277
64.5056,4.82117e-274
64.5556,7.51683e-271
64.6056,1.12219e-267
64.6556,1.60417e-264
64.7056,2.19576e-261
64.7556,2.87785e-258
64.8056,3.61163e-255
64.8556,4.33998e-252
64.9056,4.99371e-249
64.9556,5.50186e-246
65.0056,5.80424e-243
65.0556,5.86316e-240
65.1056,5.67112e-237
65.1556,5.25238e-234
65.2056,4.65794e-231
65.2556,3.95533e-228
65.3056,3.21604e-225
65.3556,2.50386e-222
65.4056,1.86659e-219
65.4556,1.33241e-216
65.5056,9.10709e-214
65.5556,5.96033e-211
65.6056,3.73518e-208
65.6556,2.24132e-205
65.7056,1.28779e-202
65.7556,7.08496e-200
65.8056,3.73233e-197
65.8556,1.88267e-194
65.9056,9.0932e-192
65.9556,4.20543e-189
66.0056,1.86232e-186
66.0556,7.89678e-184
66.1056,3.20623e-181
66.1556,1.2465e-178
66.2056,4.6402e-176
66.2556,1.65399e-173
66.3056,5.64521e-171
66.3556,1.84492e-168
66.4056,5.77332e-166
66.4556,1.72991e-163
66.5056,4.96332e-161
66.5556,1.36355e-158
66.6056,3.58691e-156
66.6556,9.03483e-154
66.7056,2.17907e-151
66.7556,5.03235e-149
66.8056,1.11281e-146
66.8556,2.35626e-144
66.9056,4.77722e-142
66.9556,9.27422e-140
67.0056,1.72397e-137
67.0556,3.06855e-135
67.1056,5.22982e-133
67.1556,8.53475e-131
67.2056,1.33366e-128
67.2556,1.99549e-126
67.3056,2.85894e-124
67.3556,3.92203e-122
67.4056,5.15189e-120
67.4556,6.47997e-118
67.5056,7.80422e-116
67.5556,8.99988e-114
67.6056,9.9379e-112
67.6556,1.05076e-109
67.7056,1.0638e-107
67.7556,1.03126e-105
67.8056,9.57258e-104
67.8556,8.50822e-102
67.9056,7.24101e-100
67.9556,5.90078e-98
68.0056,4.60437e-96
68.0556,3.44019e-94
68.1056,2.46118e-92
68.1556,1.68599e-90
68.2056,1.10591e-88
68.2556,6.94594e-87
68.3056,4.17729e-85
68.3556,2.40552e-83
68.4056,1.32639e-81
68.4556,7.00305e-80
68.5056,3.5404e-78
68.5556,1.71383e-76
68.6056,7.9439e-75
68.6556,3.52574e-73
68.7056,1.49836e-71
68.7556,6.09725e-70
68.8056,2.37575e-68
68.8556,8.86379e-67
68.9056,3.16656e-65
68.9556,1.0832e-63
69.0056,3.54794e-62
69.0556,1.11274e-60
69.1056,3.34169e-59
69.1556,9.60917e-58
69.2056,2.6458e-56
69.2556,6.97555e-55
69.3056,1.76096e-53
69.3556,4.25669e-52
69.4056,9.85245e-51
69.4556,2.18357e-49
69.5056,4.63384e-48
69.5556,9.41596e-47
69.6056,1.83206e-45
69.6556,3.41321e-44
69.7056,6.08889e-43
69.7556,1.04007e-41
69.8056,1.70114e-40
69.8556,2.66419e-39
69.9056,3.99523e-38
69.9556,5.73679e-37
70.0056,7.88763e-36
70.0556,1.03842e-34
70.1056,1.30904e-33
70.1556,1.58009e-32
70.2056,1.82625e-31
70.2556,2.02111e-30
70.3056,2.14176e-29
70.3556,2.1732e-28
70.4056,2.11145e-27
70.4556,1.96432e-26
70.5056,1.74982e-25
70.5556,1.49254e-24
70.6056,1.21901e-23
70.6556,9.53326e-23
70.7056,7.13879e-22
70.7556,5.11868e-21
70.8056,3.51433e-20
70.8556,2.31034e-19
70.9056,1.45433e-18
70.9556,8.76591e-18
71.0056,5.05921e-17
71.0556,2.79588e-16
71.1056,1.47947e-15
71.1556,7.49622e-15
71.2056,3.63689e-14
71.2556,1.68954e-13
71.3056,7.51546e-13
71.3556,3.20106e-12
71.4056,1.30552e-11
71.4556,5.09827e-11
71.5056,1.90639e-10
71.5556,6.82579e-10
71.6056,2.34015e-09
71.6556,7.68219e-09
71.7056,2.41477e-08
71.7556,7.26805e-08
71.8056,2.09465e-07
71.8556,5.78034e-07
71.9056,1.52738e-06
71.9556,3.86447e-06
72.0056,9.36233e-06
72.0556,2.17184e-05
72.1056,4.82418e-05
72.1556,0.000102605
72.2056,0.00020896
72.2556,0.000407484
72.3056,0.000760863
72.3556,0.00136036
72.4056,0.0023289
72.4556,0.00381767
72.5056,0.00599234
72.5556,0.00900627
72.6056,0.0129612
72.6556,0.0178605
72.7056,0.0235664
72.7556,0.0297744
72.8056,0.03602
72.8556,0.0417249
72.9056,0.0462803
72.9556,0.0491528
73.0056,0.0499862
73.0556,0.0486747
73.1056,0.0453844
73.1556,0.0405191
73.2056,0.0346389
73.2556,0.0283542
73.3056,0.022224
73.3556,0.0166793
73.4056,0.0119863
73.4556,0.00824782
73.5056,0.00543433
73.5556,0.00342849
73.6056,0.00207114
73.6556,0.00119803
73.7056,0.000663553
73.7556,0.000351912
73.8056,0.000178707
73.8556,8.68964e-05