File: kim_2002/xrd/xrd.csv
32.0069, 0.0213647
32.4056, 0.0201175
32.605, 0.0176232
32.8044, 0.0176232
32.993, 0.0178013
33.1532, 0.0145052
33.3526, 0.0151288
33.5626, 0.0167323
33.7364, 0.0183715
33.8012, 0.0129462
33.9614, 0.019583
34.0753, 0.0176232
34.1109, 0.0315204
34.1999, 0.0579488
34.1999, 0.0450613
34.2497, 0.161673
34.2497, 0.151696
34.2497, 0.141718
34.2497, 0.131741
34.2497, 0.121763
34.2497, 0.111786
34.2497, 0.101808
34.2497, 0.0918307
34.2497, 0.0818532
34.2497, 0.0718758
34.2497, 0.0350838
34.2547, 0.172524
34.2996, 0.419217
34.2996, 0.40924
34.2996, 0.399262
34.2996, 0.389285
34.2996, 0.379307
34.2996, 0.36933
34.2996, 0.359352
34.2996, 0.349375
34.2996, 0.339397
34.2996, 0.32942
34.2996, 0.319442
34.2996, 0.309465
34.2996, 0.299487
34.2996, 0.28951
34.2996, 0.279532
34.2996, 0.269555
34.2996, 0.259577
34.2996, 0.2496
34.2996, 0.239622
34.2996, 0.229645
34.2996, 0.219667
34.2996, 0.20969
34.2996, 0.199712
34.2996, 0.189735
34.3079, 0.431273
34.3079, 0.181005
34.3245, 0.0450613
34.3494, 0.0506736
34.3577, 0.0621061
34.3743, 0.106173
34.3743, 0.0961959
34.3743, 0.0862184
34.3743, 0.0762409
34.3992, 0.153566
34.3992, 0.143589
34.3992, 0.133611
34.3992, 0.123634
34.3992, 0.11428
34.4075, 0.166038
34.4159, 0.443329
34.4242, 0.852822
34.4242, 0.683205
34.4242, 0.673227
34.4242, 0.66325
34.4242, 0.653272
34.4242, 0.643295
34.4242, 0.633317
34.4242, 0.62334
34.4242, 0.613362
34.4242, 0.603385
34.4242, 0.593407
34.4242, 0.58343
34.4242, 0.573452
34.4242, 0.563475
34.4242, 0.553497
34.4242, 0.54352
34.4242, 0.533542
34.4242, 0.523565
34.4242, 0.513587
34.4242, 0.50361
34.4242, 0.493632
34.4242, 0.483655
34.4242, 0.473678
34.4242, 0.4637
34.4242, 0.455385
34.4242, 0.340644
34.4242, 0.330667
34.4242, 0.320689
34.4242, 0.310712
34.4242, 0.300734
34.4242, 0.290757
34.4242, 0.280779
34.4242, 0.270802
34.4242, 0.260824
34.4242, 0.250847
34.4242, 0.240869
34.4242, 0.230892
34.4242, 0.220914
34.4242, 0.210937
34.4242, 0.200959
34.4242, 0.190982
34.4242, 0.181005
34.4491, 1.07087
34.4491, 1.06089
34.4491, 1.05092
34.4491, 1.04094
34.4491, 1.03096
34.4491, 1.02098
34.4491, 1.01101
34.4491, 1.00103
34.4491, 0.991052
34.4491, 0.981074
34.4491, 0.971097
34.4491, 0.961119
34.4491, 0.951142
34.4491, 0.941164
34.4491, 0.931187
34.4491, 0.921209
34.4491, 0.911232
34.4491, 0.901254
34.4491, 0.891277
34.4491, 0.881299
34.4491, 0.871322
34.4491, 0.861344
34.4491, 0.831412
34.4491, 0.821435
34.4491, 0.811457
34.4491, 0.80148
34.4491, 0.791502
34.4491, 0.781525
34.4491, 0.771547
34.4491, 0.76157
34.4491, 0.751592
34.4491, 0.741615
34.4491, 0.731637
34.4491, 0.72166
34.4491, 0.711682
34.4491, 0.701705
34.4491, 0.692351
34.4491, 0.427947
34.4491, 0.41797
34.4491, 0.407992
34.4491, 0.398015
34.4491, 0.388037
34.4491, 0.37806
34.4491, 0.368082
34.4491, 0.358105
34.4491, 0.348751
34.4574, 1.08314
34.464, 0.842429
34.4989, 1.43505
34.4989, 1.42507
34.4989, 1.4151
34.4989, 1.40512
34.4989, 1.39514
34.4989, 1.38516
34.4989, 1.37519
34.4989, 1.36521
34.4989, 1.35523
34.4989, 1.34525
34.4989, 1.33528
34.4989, 1.3253
34.4989, 1.31532
34.4989, 1.30534
34.4989, 1.29537
34.4989, 1.28539
34.4989, 1.27541
34.4989, 1.26543
34.4989, 1.25546
34.4989, 1.24548
34.4989, 1.2355
34.4989, 1.22552
34.4989, 1.21555
34.4989, 1.20557
34.4989, 1.19559
34.4989, 1.18561
34.4989, 1.17564
34.4989, 1.16566
34.4989, 1.15568
34.4989, 1.1457
34.4989, 1.13573
34.4989, 1.12575
34.4989, 1.11577
34.4989, 1.10579
34.4989, 1.09582
34.5096, 1.44886
34.5438, 1.53196
34.5488, 1.52111
34.5488, 1.51113
34.5488, 1.50115
34.5488, 1.49117
34.5488, 1.4812
34.5488, 1.47122
34.5571, 1.46311
34.6235, 1.55291
34.6401, 0.902709
34.6401, 0.892732
34.6401, 0.882755
34.6401, 0.872777
34.6401, 0.8628
34.6401, 0.852822
34.6484, 1.54231
34.6484, 1.07274
34.6484, 1.06277
34.6484, 1.0531
34.6484, 1.04281
34.6484, 1.03283
34.6484, 1.02286
34.6484, 1.01288
34.6484, 1.0029
34.6484, 0.992923
34.6484, 0.982945
34.6484, 0.972968
34.6484, 0.96299
34.6484, 0.953013
34.6484, 0.943035
34.6484, 0.933058
34.6484, 0.92308
34.6484, 0.913103
34.6484, 0.840766
34.6484, 0.830788
34.6484, 0.820811
34.6484, 0.810833
34.6484, 0.800856
34.6484, 0.790878
34.6484, 0.780901
34.6484, 0.770923
34.6484, 0.760946
34.6484, 0.750969
34.6484, 0.740991
34.6484, 0.731014
34.6484, 0.721036
34.6484, 0.711059
34.6484, 0.701081
34.6484, 0.691727
34.6634, 1.08397
34.69, 1.09145
34.6983, 1.44004
34.6983, 1.43006
34.6983, 1.42008
34.6983, 1.41011
34.6983, 1.40013
34.6983, 1.39015
34.6983, 1.38017
34.6983, 1.3702
34.6983, 1.36022
34.6983, 1.35024
34.6983, 1.34026
34.6983, 1.33029
34.6983, 1.32031
34.6983, 1.31033
34.6983, 1.30035
34.6983, 1.29038
34.6983, 1.2804
34.6983, 1.27042
34.6983, 1.26044
34.6983, 1.25047
34.6983, 1.24049
34.6983, 1.23051
34.6983, 1.22053
34.6983, 1.21056
34.6983, 1.20058
34.6983, 1.1906
34.6983, 1.18062
34.6983, 1.17065
34.6983, 1.16067
34.6983, 1.15069
34.6983, 1.14071
34.6983, 1.13074
34.6983, 1.12076
34.6983, 1.11078
34.6983, 1.1008
34.7149, 1.4523
34.7232, 1.5288
34.7481, 1.51986
34.7481, 1.50988
34.7481, 1.4999
34.7481, 1.48993
34.7481, 1.47995
34.7481, 1.46997
34.7481, 1.46311
34.783, 0.486565
34.798, 0.666783
34.798, 0.656806
34.798, 0.646828
34.798, 0.636851
34.798, 0.626874
34.798, 0.616896
34.798, 0.606919
34.798, 0.596941
34.798, 0.586964
34.798, 0.576986
34.798, 0.567009
34.798, 0.557031
34.798, 0.547054
34.798, 0.537076
34.798, 0.527099
34.798, 0.517121
34.798, 0.507144
34.798, 0.497166
34.8086, 0.680592
34.8229, 1.06484
34.8229, 1.05487
34.8229, 1.04489
34.8229, 1.03491
34.8229, 1.02493
34.8229, 1.01496
34.8229, 1.00498
34.8229, 0.995001
34.8229, 0.985024
34.8229, 0.975046
34.8229, 0.965069
34.8229, 0.955091
34.8229, 0.945114
34.8229, 0.935136
34.8229, 0.925159
34.8229, 0.915181
34.8229, 0.905204
34.8229, 0.895226
34.8229, 0.885249
34.8229, 0.875271
34.8229, 0.865294
34.8229, 0.855316
34.8229, 0.845339
34.8229, 0.835361
34.8229, 0.825384
34.8229, 0.815406
34.8229, 0.805429
34.8229, 0.795451
34.8229, 0.785474
34.8229, 0.775497
34.8229, 0.765519
34.8229, 0.755542
34.8229, 0.745564
34.8229, 0.735587
34.8229, 0.725609
34.8229, 0.715632
34.8229, 0.705654
34.8229, 0.695677
34.8229, 1.45313
34.8229, 1.44316
34.8229, 1.43318
34.8229, 1.4232
34.8229, 1.41322
34.8229, 1.40325
34.8229, 1.39327
34.8229, 1.38329
34.8229, 1.37331
34.8229, 1.36334
34.8229, 1.35336
34.8229, 1.34338
34.8229, 1.3334
34.8229, 1.32343
34.8229, 1.31345
34.8229, 1.30347
34.8229, 1.29349
34.8229, 1.28352
34.8229, 1.27354
34.8229, 1.26356
34.8229, 1.25358
34.8229, 1.24361
34.8229, 1.23363
34.8229, 1.22365
34.8229, 1.21367
34.8229, 1.2037
34.8229, 1.19372
34.8329, 1.07848
34.8478, 1.18374
34.8478, 1.17376
34.8478, 1.16379
34.8478, 1.15381
34.8478, 1.14383
34.8478, 1.13385
34.8478, 1.12388
34.8478, 1.1139
34.8478, 1.10392
34.8478, 1.09394
34.8628, 0.479581
34.8976, 0.452267
34.8976, 0.44229
34.8976, 0.432312
34.8976, 0.422335
34.8976, 0.412358
34.8976, 0.40238
34.8976, 0.392403
34.8976, 0.382425
34.8976, 0.372448
34.8976, 0.36247
34.8976, 0.352493
34.8976, 0.342515
34.8976, 0.332538
34.8976, 0.32256
34.8976, 0.312583
34.8976, 0.302605
34.8976, 0.292628
34.8976, 0.28265
34.8976, 0.272673
34.8976, 0.262695
34.8976, 0.252718
34.8976, 0.24274
34.8976, 0.232763
34.8976, 0.222785
34.8976, 0.212808
34.8976, 0.20283
34.8976, 0.192853
34.9143, 0.464531
34.9475, 0.171651
34.9475, 0.161673
34.9475, 0.151696
34.9475, 0.141718
34.9475, 0.131741
34.9475, 0.121763
34.9475, 0.111786
34.9475, 0.101808
34.9475, 0.0918307
34.9475, 0.643711
34.9475, 0.633733
34.9475, 0.623756
34.9475, 0.613778
34.9475, 0.603801
34.9475, 0.593823
34.9475, 0.583846
34.9475, 0.573868
34.9475, 0.563891
34.9475, 0.553913
34.9475, 0.543936
34.9475, 0.533958
34.9475, 0.523981
34.9475, 0.514003
34.9475, 0.504026
34.9475, 0.494048
34.951, 0.0352025
34.9558, 0.0833083
34.9624, 0.183499
34.9724, 0.480329
35.0123, 0.026104
35.0222, 0.230892
35.0222, 0.220914
35.0222, 0.210937
35.0222, 0.200959
35.0472, 0.0594039
35.0472, 0.0494264
35.0521, 0.0702544
35.097, 0.112409
35.097, 0.102432
35.097, 0.0924543
35.097, 0.0824768
35.1468, 0.0210529
35.1718, 0.0537916
35.1967, 0.0400725
35.205, 0.0280164
35.3569, 0.018514
35.5456, 0.0182468
35.71, 0.0178726
71.929, 0.00910072
72.1283, 0.00671028
72.3443, 0.00681422
72.5146, 0.011699
72.6616, 0.024358
72.7929, 0.0357074
72.8411, 0.0478051
72.8909, 0.0592792
73.0753, 0.0612747
73.2198, 0.0378276
73.2248, 0.0279124
73.2248, 0.05005
73.3352, 0.0179795
73.4408, 0.00910072
73.6086, 0.00839399
73.6734, 0.00359232
73.8578, 0.00889286