File: li_2014/300_xrd/curve_1_fit.dat
29.4225,0.0116335
29.4325,0.0117137
29.4425,0.0117947
29.4525,0.0118766
29.4625,0.0119593
29.4725,0.0120429
29.4825,0.0121274
29.4925,0.0122128
29.5025,0.012299
29.5125,0.0123862
29.5225,0.0124743
29.5325,0.0125634
29.5425,0.0126534
29.5525,0.0127444
29.5625,0.0128363
29.5725,0.0129293
29.5825,0.0130232
29.5925,0.0131182
29.6025,0.0132143
29.6125,0.0133114
29.6225,0.0134095
29.6325,0.0135088
29.6425,0.0136091
29.6525,0.0137106
29.6625,0.0138132
29.6725,0.013917
29.6825,0.0140219
29.6925,0.014128
29.7025,0.0142354
29.7125,0.0143439
29.7225,0.0144537
29.7325,0.0145648
29.7425,0.0146771
29.7525,0.0147908
29.7625,0.0149057
29.7725,0.0150221
29.7825,0.0151397
29.7925,0.0152588
29.8025,0.0153793
29.8125,0.0155011
29.8225,0.0156245
29.8325,0.0157493
29.8425,0.0158756
29.8525,0.0160035
29.8625,0.0161329
29.8725,0.0162638
29.8825,0.0163964
29.8925,0.0165306
29.9025,0.0166664
29.9125,0.0168039
29.9225,0.0169431
29.9325,0.017084
29.9425,0.0172267
29.9525,0.0173712
29.9625,0.0175176
29.9725,0.0176657
29.9825,0.0178158
29.9925,0.0179677
30.0025,0.0181216
30.0125,0.0182775
30.0225,0.0184354
30.0325,0.0185954
30.0425,0.0187574
30.0525,0.0189216
30.0625,0.0190879
30.0725,0.0192564
30.0825,0.0194272
30.0925,0.0196002
30.1025,0.0197756
30.1125,0.0199533
30.1225,0.0201333
30.1325,0.0203159
30.1425,0.0205009
30.1525,0.0206885
30.1625,0.0208786
30.1725,0.0210713
30.1825,0.0212668
30.1925,0.0214649
30.2025,0.0216658
30.2125,0.0218696
30.2225,0.0220762
30.2325,0.0222858
30.2425,0.0224983
30.2525,0.0227139
30.2625,0.0229326
30.2725,0.0231545
30.2825,0.0233795
30.2925,0.0236079
30.3025,0.0238396
30.3125,0.0240747
30.3225,0.0243134
30.3325,0.0245555
30.3425,0.0248013
30.3525,0.0250508
30.3625,0.025304
30.3725,0.0255611
30.3825,0.0258222
30.3925,0.0260872
30.4025,0.0263563
30.4125,0.0266295
30.4225,0.0269071
30.4325,0.0271889
30.4425,0.0274752
30.4525,0.0277661
30.4625,0.0280615
30.4725,0.0283617
30.4825,0.0286667
30.4925,0.0289766
30.5025,0.0292916
30.5125,0.0296116
30.5225,0.029937
30.5325,0.0302677
30.5425,0.0306039
30.5525,0.0309457
30.5625,0.0312932
30.5725,0.0316466
30.5825,0.032006
30.5925,0.0323715
30.6025,0.0327432
30.6125,0.0331214
30.6225,0.0335061
30.6325,0.0338975
30.6425,0.0342958
30.6525,0.0347012
30.6625,0.0351137
30.6725,0.0355335
30.6825,0.0359609
30.6925,0.0363961
30.7025,0.0368391
30.7125,0.0372902
30.7225,0.0377496
30.7325,0.0382175
30.7425,0.038694
30.7525,0.0391795
30.7625,0.0396742
30.7725,0.0401782
30.7825,0.0406918
30.7925,0.0412153
30.8025,0.0417488
30.8125,0.0422928
30.8225,0.0428473
30.8325,0.0434128
30.8425,0.0439894
30.8525,0.0445775
30.8625,0.0451775
30.8725,0.0457895
30.8825,0.0464139
30.8925,0.0470512
30.9025,0.0477015
30.9125,0.0483653
30.9225,0.049043
30.9325,0.0497349
30.9425,0.0504414
30.9525,0.051163
30.9625,0.0519
30.9725,0.0526529
30.9825,0.0534223
30.9925,0.0542084
31.0025,0.0550119
31.0125,0.0558332
31.0225,0.0566729
31.0325,0.0575315
31.0425,0.0584096
31.0525,0.0593077
31.0625,0.0602266
31.0725,0.0611667
31.0825,0.0621288
31.0925,0.0631136
31.1025,0.0641217
31.1125,0.065154
31.1225,0.0662111
31.1325,0.0672938
31.1425,0.0684031
31.1525,0.0695397
31.1625,0.0707045
31.1725,0.0718985
31.1825,0.0731227
31.1925,0.0743781
31.2025,0.0756656
31.2125,0.0769865
31.2225,0.0783418
31.2325,0.0797328
31.2425,0.0811607
31.2525,0.0826268
31.2625,0.0841324
31.2725,0.085679
31.2825,0.087268
31.2925,0.088901
31.3025,0.0905797
31.3125,0.0923056
31.3225,0.0940806
31.3325,0.0959064
31.3425,0.0977851
31.3525,0.0997187
31.3625,0.101709
31.3725,0.103759
31.3825,0.10587
31.3925,0.108046
31.4025,0.110287
31.4125,0.112598
31.4225,0.114981
31.4325,0.117439
31.4425,0.119976
31.4525,0.122593
31.4625,0.125296
31.4725,0.128087
31.4825,0.13097
31.4925,0.133949
31.5025,0.137029
31.5125,0.140214
31.5225,0.143509
31.5325,0.146919
31.5425,0.150448
31.5525,0.154103
31.5625,0.157889
31.5725,0.161813
31.5825,0.16588
31.5925,0.170099
31.6025,0.174476
31.6125,0.179019
31.6225,0.183736
31.6325,0.188636
31.6425,0.193729
31.6525,0.199023
31.6625,0.20453
31.6725,0.210261
31.6825,0.216226
31.6925,0.22244
31.7025,0.228914
31.7125,0.235664
31.7225,0.242705
31.7325,0.250051
31.7425,0.257722
31.7525,0.265734
31.7625,0.274107
31.7725,0.282863
31.7825,0.292023
31.7925,0.301611
31.8025,0.311653
31.8125,0.322175
31.8225,0.333207
31.8325,0.344779
31.8425,0.356925
31.8525,0.369679
31.8625,0.383081
31.8725,0.39717
31.8825,0.411989
31.8925,0.427585
31.9025,0.444008
31.9125,0.461309
31.9225,0.479546
31.9325,0.498778
31.9425,0.519068
31.9525,0.540485
31.9625,0.5631
31.9725,0.586989
31.9825,0.612232
31.9925,0.638912
32.0025,0.667119
32.0125,0.696942
32.0225,0.728476
32.0325,0.761817
32.0425,0.797064
32.0525,0.834313
32.0625,0.873659
32.0725,0.915196
32.0825,0.959005
32.0925,1.00516
32.1025,1.05373
32.1125,1.10473
32.1225,1.1582
32.1325,1.2141
32.1425,1.27236
32.1525,1.33289
32.1625,1.39549
32.1725,1.45991
32.1825,1.52582
32.1925,1.5928
32.2025,1.6603
32.2125,1.72768
32.2225,1.7942
32.2325,1.859
32.2425,1.92112
32.2525,1.97954
32.2625,2.03319
32.2725,2.08098
32.2825,2.12189
32.2925,2.15495
32.3025,2.17937
32.3125,2.19451
32.3225,2.19998
32.3325,2.19564
32.3425,2.1816
32.3525,2.15823
32.3625,2.12612
32.3725,2.08607
32.3825,2.03902
32.3925,1.98599
32.4025,1.92807
32.4125,1.86632
32.4225,1.80178
32.4325,1.73542
32.4425,1.66809
32.4525,1.60057
32.4625,1.53351
32.4725,1.46745
32.4825,1.40283
32.4925,1.34001
32.5025,1.27924
32.5125,1.2207
32.5225,1.16452
32.5325,1.11078
32.5425,1.05949
32.5525,1.01064
32.5625,0.96421
32.5725,0.920133
32.5825,0.878339
32.5925,0.838744
32.6025,0.801258
32.6125,0.765785
32.6225,0.732229
32.6325,0.700491
32.6425,0.670476
32.6525,0.642088
32.6625,0.615235
32.6725,0.589831
32.6825,0.56579
32.6925,0.543032
32.7025,0.521481
32.7125,0.501064
32.7225,0.481713
32.7325,0.463365
32.7425,0.445959
32.7525,0.429437
32.7625,0.413748
32.7725,0.398842
32.7825,0.384671
32.7925,0.371192
32.8025,0.358365
32.8125,0.34615
32.8225,0.334514
32.8325,0.323421
32.8425,0.312842
32.8525,0.302746
32.8625,0.293107
32.8725,0.283899
32.8825,0.275098
32.8925,0.266681
32.9025,0.258628
32.9125,0.25092
32.9225,0.243536
32.9325,0.236462
32.9425,0.229679
32.9525,0.223173
32.9625,0.21693
32.9725,0.210937
32.9825,0.20518
32.9925,0.199648
33.0025,0.194329
33.0125,0.189214
33.0225,0.184292
33.0325,0.179554
33.0425,0.174992
33.0525,0.170596
33.0625,0.166359
33.0725,0.162275
33.0825,0.158335
33.0925,0.154533
33.1025,0.150863
33.1125,0.14732
33.1225,0.143897
33.1325,0.140589
33.1425,0.137391
33.1525,0.134299
33.1625,0.131309
33.1725,0.128414
33.1825,0.125613
33.1925,0.122901
33.2025,0.120273
33.2125,0.117728
33.2225,0.115261
33.2325,0.11287
33.2425,0.11055
33.2525,0.108301
33.2625,0.106118
33.2725,0.103999
33.2825,0.101943
33.2925,0.0999455
33.3025,0.0980054
33.3125,0.0961205
33.3225,0.0942886
33.3325,0.0925079
33.3425,0.0907764
33.3525,0.0890924
33.3625,0.0874542
33.3725,0.0858602
33.3825,0.0843087
33.3925,0.0827985
33.4025,0.0813279
33.4125,0.0798957
33.4225,0.0785005
33.4325,0.0771411
33.4425,0.0758163
33.4525,0.074525
33.4625,0.073266
33.4725,0.0720383
33.4825,0.0708408
33.4925,0.0696726
33.5025,0.0685328
33.5125,0.0674205
33.5225,0.0663347
33.5325,0.0652747
33.5425,0.0642396
33.5525,0.0632287
33.5625,0.0622413
33.5725,0.0612766
33.5825,0.060334
33.5925,0.0594127
33.6025,0.0585122
33.6125,0.0576318
33.6225,0.056771
33.6325,0.0559292
33.6425,0.0551057
33.6525,0.0543002
33.6625,0.0535121
33.6725,0.0527409
33.6825,0.0519861
33.6925,0.0512472
33.7025,0.0505239
33.7125,0.0498157
33.7225,0.0491221
33.7325,0.0484428
33.7425,0.0477774
33.7525,0.0471255
33.7625,0.0464868
33.7725,0.0458609
33.7825,0.0452475
33.7925,0.0446462
33.8025,0.0440567
33.8125,0.0434787
33.8225,0.042912
33.8325,0.0423562
33.8425,0.0418111
33.8525,0.0412763
33.8625,0.0407517
33.8725,0.040237
33.8825,0.0397319
33.8925,0.0392362
33.9025,0.0387496
33.9125,0.038272
33.9225,0.0378031
33.9325,0.0373428
33.9425,0.0368907
33.9525,0.0364468
33.9625,0.0360108
33.9725,0.0355825
33.9825,0.0351617
33.9925,0.0347484
34.0025,0.0343423
34.0125,0.0339432
34.0225,0.0335509
34.0325,0.0331654
34.0425,0.0327865
34.0525,0.032414
34.0625,0.0320478
34.0725,0.0316877
34.0825,0.0313337
34.0925,0.0309855
34.1025,0.030643
34.1125,0.0303062
34.1225,0.0299749
34.1325,0.0296489
34.1425,0.0293282
34.1525,0.0290127
34.1625,0.0287022
34.1725,0.0283967
34.1825,0.0280959
34.1925,0.0277999
34.2025,0.0275086
34.2125,0.0272218
34.2225,0.0269394
34.2325,0.0266614
34.2425,0.0263876
34.2525,0.026118
34.2625,0.0258525
34.2725,0.0255911
34.2825,0.0253335
34.2925,0.0250798
34.3025,0.0248299
34.3125,0.0245837
34.3225,0.0243411
34.3325,0.0241021
34.3425,0.0238666
34.3525,0.0236345
34.3625,0.0234057
34.3725,0.0231803
34.3825,0.022958
34.3925,0.022739
34.4025,0.022523
34.4125,0.0223101
34.4225,0.0221002
34.4325,0.0218933
34.4425,0.0216892
34.4525,0.021488
34.4625,0.0212895
34.4725,0.0210938
34.4825,0.0209007
34.4925,0.0207103
34.5025,0.0205224
34.5125,0.0203371
34.5225,0.0201543
34.5325,0.0199739
34.5425,0.0197959
34.5525,0.0196203
34.5625,0.019447
34.5725,0.019276
34.5825,0.0191073
34.5925,0.0189407
34.6025,0.0187763
34.6125,0.018614
34.6225,0.0184538
34.6325,0.0182957
34.6425,0.0181395
34.6525,0.0179854
34.6625,0.0178332
34.6725,0.0176829
34.6825,0.0175346
34.6925,0.017388
34.7025,0.0172433
34.7125,0.0171004
34.7225,0.0169593
34.7325,0.0168199
34.7425,0.0166822
34.7525,0.0165461
34.7625,0.0164118
34.7725,0.016279
34.7825,0.0161479
34.7925,0.0160183
34.8025,0.0158903
34.8125,0.0157638
34.8225,0.0156388
34.8325,0.0155153
34.8425,0.0153932
34.8525,0.0152726
34.8625,0.0151534
34.8725,0.0150356
34.8825,0.0149191
34.8925,0.014804
34.9025,0.0146902
34.9125,0.0145777
34.9225,0.0144665
34.9325,0.0143565
34.9425,0.0142478
34.9525,0.0141404
34.9625,0.0140341
34.9725,0.013929
34.9825,0.0138251
34.9925,0.0137224
35.0025,0.0136208
35.0125,0.0135203
35.0225,0.0134209
35.0325,0.0133226
35.0425,0.0132254
35.0525,0.0131293
35.0625,0.0130342
35.0725,0.0129401
35.0825,0.012847
35.0925,0.0127549
35.1025,0.0126638
35.1125,0.0125737
35.1225,0.0124846
35.1325,0.0123963
35.1425,0.0123091
35.1525,0.0122227
35.1625,0.0121372
35.1725,0.0120526
35.1825,0.0119689
35.1925,0.0118861
35.2025,0.0118041
35.2125,0.011723
35.2225,0.0116427
35.2325,0.0115632
35.2425,0.0114846
35.2525,0.0114067
35.2625,0.0113296
35.2725,0.0112533
35.2825,0.0111778
35.2925,0.011103
35.3025,0.011029
35.3125,0.0109557
35.3225,0.0108831
35.3325,0.0108112
35.3425,0.0107401
35.3525,0.0106697
35.3625,0.0105999
35.3725,0.0105308
35.3825,0.0104624
35.3925,0.0103947
35.4025,0.0103276
35.4125,0.0102612
35.4225,0.0101954
35.4325,0.0101302
35.4425,0.0100656
35.4525,0.0100017
35.4625,0.00993838
35.4725,0.00987566
35.4825,0.00981352
35.4925,0.00975196
35.5025,0.00969098
35.5125,0.00963058
35.5225,0.00957073
35.5325,0.00951144
35.5425,0.0094527
35.5525,0.00939449
35.5625,0.00933683
35.5725,0.00927969
35.5825,0.00922308
35.5925,0.00916698
35.6025,0.00911139
35.6125,0.0090563
35.6225,0.00900171
35.6325,0.00894762
35.6425,0.008894
35.6525,0.00884087
35.6625,0.00878821
35.6725,0.00873602
35.6825,0.0086843
35.6925,0.00863303
35.7025,0.00858221
35.7125,0.00853184
35.7225,0.00848191
35.7325,0.00843242
35.7425,0.00838336
35.7525,0.00833472
35.7625,0.00828651
35.7725,0.00823871
35.7825,0.00819133
35.7925,0.00814435
35.8025,0.00809778
35.8125,0.0080516
35.8225,0.00800582
35.8325,0.00796042
35.8425,0.00791541
35.8525,0.00787078
35.8625,0.00782653
35.8725,0.00778265
35.8825,0.00773913
35.8925,0.00769598
35.9025,0.00765319
35.9125,0.00761075
35.9225,0.00756867
35.9325,0.00752693
35.9425,0.00748554
35.9525,0.00744448
35.9625,0.00740377
35.9725,0.00736338
35.9825,0.00732333
35.9925,0.0072836
36.0025,0.00724419
36.0125,0.0072051
36.0225,0.00716633
36.0325,0.00712787
36.0425,0.00708972
36.0525,0.00705187
36.0625,0.00701432
36.0725,0.00697708
36.0825,0.00694012
36.0925,0.00690347
36.1025,0.0068671
36.1125,0.00683101
36.1225,0.00679521
36.1325,0.00675969
36.1425,0.00672445
36.1525,0.00668948
36.1625,0.00665479
36.1725,0.00662036
36.1825,0.0065862
36.1925,0.0065523
36.2025,0.00651867
36.2125,0.00648529
36.2225,0.00645217
36.2325,0.0064193
36.2425,0.00638668
36.2525,0.0063543
36.2625,0.00632218
36.2725,0.00629029
36.2825,0.00625865
36.2925,0.00622725
36.3025,0.00619608
36.3125,0.00616514
36.3225,0.00613443
36.3325,0.00610396
36.3425,0.00607371
36.3525,0.00604368
36.3625,0.00601387
36.3725,0.00598429
36.3825,0.00595492
36.3925,0.00592577
36.4025,0.00589683
36.4125,0.0058681
36.4225,0.00583959
36.4325,0.00581127
36.4425,0.00578317
36.4525,0.00575527
36.4625,0.00572757
36.4725,0.00570006
36.4825,0.00567276
36.4925,0.00564565
36.5025,0.00561874
36.5125,0.00559201
36.5225,0.00556548
36.5325,0.00553913
36.5425,0.00551297
36.5525,0.005487
36.5625,0.00546121
36.5725,0.0054356
36.5825,0.00541017
36.5925,0.00538492
36.6025,0.00535984
36.6125,0.00533494
36.6225,0.00531021
36.6325,0.00528566
36.6425,0.00526127
36.6525,0.00523705
36.6625,0.005213
36.6725,0.00518911
36.6825,0.00516539
36.6925,0.00514183
36.7025,0.00511843
36.7125,0.00509518
36.7225,0.0050721
36.7325,0.00504917
36.7425,0.0050264
36.7525,0.00500378
36.7625,0.00498132
36.7725,0.004959
36.7825,0.00493684
36.7925,0.00491482
36.8025,0.00489295
36.8125,0.00487122
36.8225,0.00484964
36.8325,0.0048282
36.8425,0.00480691
36.8525,0.00478575
36.8625,0.00476474
36.8725,0.00474386
36.8825,0.00472312
36.8925,0.00470251
36.9025,0.00468204
36.9125,0.0046617
36.9225,0.00464149
36.9325,0.00462142
36.9425,0.00460147
36.9525,0.00458166
36.9625,0.00456197
36.9725,0.00454241
36.9825,0.00452297
36.9925,0.00450366
37.0025,0.00448447
37.0125,0.0044654
37.0225,0.00444646
37.0325,0.00442763
37.0425,0.00440893
37.0525,0.00439034
37.0625,0.00437187
37.0725,0.00435351
37.0825,0.00433527
37.0925,0.00431715
37.1025,0.00429914
37.1125,0.00428124
37.1225,0.00426345
37.1325,0.00424577
37.1425,0.00422821
37.1525,0.00421075
37.1625,0.0041934
37.1725,0.00417615
37.1825,0.00415902
37.1925,0.00414198
37.2025,0.00412506
37.2125,0.00410823
37.2225,0.00409151
37.2325,0.00407489
37.2425,0.00405837
37.2525,0.00404195
37.2625,0.00402563
37.2725,0.00400941
37.2825,0.00399329
37.2925,0.00397726
37.3025,0.00396133
37.3125,0.0039455
37.3225,0.00392976
37.3325,0.00391411
37.3425,0.00389856
37.3525,0.0038831
37.3625,0.00386773
37.3725,0.00385245
37.3825,0.00383726
37.3925,0.00382217
37.4025,0.00380716
37.4125,0.00379224
37.4225,0.0037774
37.4325,0.00376266
37.4425,0.003748
37.4525,0.00373342
37.4625,0.00371893
37.4725,0.00370453
37.4825,0.0036902
37.4925,0.00367597
37.5025,0.00366181
37.5125,0.00364773
37.5225,0.00363374
37.5325,0.00361982
37.5425,0.00360599
37.5525,0.00359223
37.5625,0.00357856
37.5725,0.00356496
37.5825,0.00355144
37.5925,0.00353799
37.6025,0.00352462
37.6125,0.00351133
37.6225,0.00349811
37.6325,0.00348497
37.6425,0.0034719
37.6525,0.0034589
37.6625,0.00344598
37.6725,0.00343313
37.6825,0.00342035
37.6925,0.00340764
37.7025,0.003395
37.7125,0.00338243
37.7225,0.00336993
37.7325,0.0033575
37.7425,0.00334514
37.7525,0.00333285
37.7625,0.00332063
37.7725,0.00330847
37.7825,0.00329638
37.7925,0.00328435
37.8025,0.00327239
37.8125,0.0032605
37.8225,0.00324867
37.8325,0.00323691
37.8425,0.0032252
37.8525,0.00321357
37.8625,0.00320199
37.8725,0.00319048
37.8825,0.00317903
37.8925,0.00316764
37.9025,0.00315631
37.9125,0.00314504
37.9225,0.00313384
37.9325,0.00312269
37.9425,0.0031116
37.9525,0.00310057
37.9625,0.0030896
37.9725,0.00307869
37.9825,0.00306783
37.9925,0.00305703
38.0025,0.00304629
38.0125,0.00303561
38.0225,0.00302498
38.0325,0.00301441
38.0425,0.00300389
38.0525,0.00299343
38.0625,0.00298302
38.0725,0.00297267
38.0825,0.00296237
38.0925,0.00295212
38.1025,0.00294193
38.1125,0.00293178
38.1225,0.0029217
38.1325,0.00291166
38.1425,0.00290168
38.1525,0.00289174
38.1625,0.00288186
38.1725,0.00287203
38.1825,0.00286224
38.1925,0.00285251
38.2025,0.00284283
38.2125,0.0028332
38.2225,0.00282361
38.2325,0.00281408
38.2425,0.00280459
38.2525,0.00279515
38.2625,0.00278576
38.2725,0.00277641
38.2825,0.00276711
38.2925,0.00275786
38.3025,0.00274866
38.3125,0.0027395
38.3225,0.00273038
38.3325,0.00272131
38.3425,0.00271229
38.3525,0.00270331
38.3625,0.00269438
38.3725,0.00268549
38.3825,0.00267664
38.3925,0.00266784
38.4025,0.00265908
38.4125,0.00265037
38.4225,0.00264169
38.4325,0.00263306
38.4425,0.00262448
38.4525,0.00261593
38.4625,0.00260742
38.4725,0.00259896
38.4825,0.00259054
38.4925,0.00258216
38.5025,0.00257382
38.5125,0.00256552
38.5225,0.00255726
38.5325,0.00254904
38.5425,0.00254085
38.5525,0.00253271
38.5625,0.00252461
38.5725,0.00251655
38.5825,0.00250852
38.5925,0.00250053
38.6025,0.00249259
38.6125,0.00248467
38.6225,0.0024768
38.6325,0.00246896
38.6425,0.00246117
38.6525,0.0024534
38.6625,0.00244568
38.6725,0.00243799
38.6825,0.00243034
38.6925,0.00242272
38.7025,0.00241514
38.7125,0.00240759
38.7225,0.00240008
38.7325,0.00239261
38.7425,0.00238517
38.7525,0.00237776
38.7625,0.00237039
38.7725,0.00236305
38.7825,0.00235575
38.7925,0.00234848
38.8025,0.00234124
38.8125,0.00233404
38.8225,0.00232687
38.8325,0.00231974
38.8425,0.00231263
38.8525,0.00230556
38.8625,0.00229852
38.8725,0.00229152
38.8825,0.00228454
38.8925,0.0022776
38.9025,0.00227069
38.9125,0.00226381
38.9225,0.00225696
38.9325,0.00225014
38.9425,0.00224336
38.9525,0.0022366
38.9625,0.00222988
38.9725,0.00222318
38.9825,0.00221652
38.9925,0.00220988
39.0025,0.00220328
39.0125,0.0021967
39.0225,0.00219015
39.0325,0.00218364
39.0425,0.00217715
39.0525,0.00217069
39.0625,0.00216426
39.0725,0.00215786
39.0825,0.00215148
39.0925,0.00214514
39.1025,0.00213882
39.1125,0.00213253
39.1225,0.00212627
39.1325,0.00212003
39.1425,0.00211383
39.1525,0.00210765
39.1625,0.00210149
39.1725,0.00209537
39.1825,0.00208927
39.1925,0.00208319
39.2025,0.00207715
39.2125,0.00207113
39.2225,0.00206513
39.2325,0.00205917
39.2425,0.00205323
39.2525,0.00204731
39.2625,0.00204142
39.2725,0.00203555
39.2825,0.00202971
39.2925,0.0020239
39.3025,0.00201811
39.3125,0.00201234
39.3225,0.0020066
39.3325,0.00200088
39.3425,0.00199519
39.3525,0.00198953
39.3625,0.00198388
39.3725,0.00197826
39.3825,0.00197267
39.3925,0.0019671
39.4025,0.00196155
39.4125,0.00195602
39.4225,0.00195052
39.4325,0.00194504
39.4425,0.00193959
39.4525,0.00193415
39.4625,0.00192874
39.4725,0.00192336
39.4825,0.00191799
39.4925,0.00191265
39.5025,0.00190733
39.5125,0.00190203
39.5225,0.00189676
39.5325,0.0018915
39.5425,0.00188627
39.5525,0.00188106
39.5625,0.00187587
39.5725,0.00187071
39.5825,0.00186556
39.5925,0.00186044
39.6025,0.00185533
39.6125,0.00185025
39.6225,0.00184519
39.6325,0.00184015
39.6425,0.00183513
39.6525,0.00183013
39.6625,0.00182515
39.6725,0.00182019
39.6825,0.00181525
39.6925,0.00181033
39.7025,0.00180543
39.7125,0.00180055
39.7225,0.00179569
39.7325,0.00179085
39.7425,0.00178603
39.7525,0.00178123
39.7625,0.00177645
39.7725,0.00177169
39.7825,0.00176694
39.7925,0.00176222
39.8025,0.00175751
39.8125,0.00175283
39.8225,0.00174816
39.8325,0.00174351
39.8425,0.00173888
39.8525,0.00173427
39.8625,0.00172967
39.8725,0.0017251
39.8825,0.00172054
39.8925,0.001716
39.9025,0.00171148
39.9125,0.00170698
39.9225,0.00170249
39.9325,0.00169802
39.9425,0.00169357
39.9525,0.00168914
39.9625,0.00168472
39.9725,0.00168032
39.9825,0.00167594
39.9925,0.00167158
40.0025,0.00166723
40.0125,0.0016629
40.0225,0.00165859
40.0325,0.00165429
40.0425,0.00165001
40.0525,0.00164575
40.0625,0.0016415
40.0725,0.00163727
40.0825,0.00163305
40.0925,0.00162886
40.1025,0.00162467
40.1125,0.00162051
40.1225,0.00161636
40.1325,0.00161222
40.1425,0.00160811
40.1525,0.001604
40.1625,0.00159992
40.1725,0.00159585
40.1825,0.00159179
40.1925,0.00158775
40.2025,0.00158373
40.2125,0.00157972