File: li_2014/300_xrd/curve_2_fit.dat
29.4225,0.00229372
29.4325,0.00230011
29.4425,0.00230652
29.4525,0.00231296
29.4625,0.00231942
29.4725,0.00232592
29.4825,0.00233244
29.4925,0.00233899
29.5025,0.00234556
29.5125,0.00235217
29.5225,0.0023588
29.5325,0.00236546
29.5425,0.00237214
29.5525,0.00237886
29.5625,0.0023856
29.5725,0.00239238
29.5825,0.00239918
29.5925,0.00240601
29.6025,0.00241287
29.6125,0.00241976
29.6225,0.00242668
29.6325,0.00243363
29.6425,0.00244061
29.6525,0.00244761
29.6625,0.00245465
29.6725,0.00246172
29.6825,0.00246882
29.6925,0.00247595
29.7025,0.00248311
29.7125,0.00249031
29.7225,0.00249753
29.7325,0.00250478
29.7425,0.00251207
29.7525,0.00251939
29.7625,0.00252674
29.7725,0.00253412
29.7825,0.00254154
29.7925,0.00254899
29.8025,0.00255647
29.8125,0.00256398
29.8225,0.00257153
29.8325,0.00257911
29.8425,0.00258672
29.8525,0.00259437
29.8625,0.00260205
29.8725,0.00260976
29.8825,0.00261751
29.8925,0.0026253
29.9025,0.00263311
29.9125,0.00264097
29.9225,0.00264886
29.9325,0.00265678
29.9425,0.00266474
29.9525,0.00267274
29.9625,0.00268077
29.9725,0.00268883
29.9825,0.00269694
29.9925,0.00270508
30.0025,0.00271326
30.0125,0.00272147
30.0225,0.00272972
30.0325,0.00273801
30.0425,0.00274634
30.0525,0.00275471
30.0625,0.00276311
30.0725,0.00277155
30.0825,0.00278003
30.0925,0.00278855
30.1025,0.00279711
30.1125,0.00280571
30.1225,0.00281435
30.1325,0.00282303
30.1425,0.00283174
30.1525,0.0028405
30.1625,0.0028493
30.1725,0.00285814
30.1825,0.00286702
30.1925,0.00287594
30.2025,0.00288491
30.2125,0.00289391
30.2225,0.00290296
30.2325,0.00291205
30.2425,0.00292119
30.2525,0.00293036
30.2625,0.00293958
30.2725,0.00294885
30.2825,0.00295815
30.2925,0.0029675
30.3025,0.0029769
30.3125,0.00298634
30.3225,0.00299582
30.3325,0.00300535
30.3425,0.00301493
30.3525,0.00302455
30.3625,0.00303422
30.3725,0.00304393
30.3825,0.00305369
30.3925,0.0030635
30.4025,0.00307336
30.4125,0.00308326
30.4225,0.00309321
30.4325,0.00310321
30.4425,0.00311325
30.4525,0.00312335
30.4625,0.00313349
30.4725,0.00314369
30.4825,0.00315393
30.4925,0.00316423
30.5025,0.00317457
30.5125,0.00318497
30.5225,0.00319541
30.5325,0.00320591
30.5425,0.00321646
30.5525,0.00322706
30.5625,0.00323771
30.5725,0.00324842
30.5825,0.00325918
30.5925,0.00326999
30.6025,0.00328086
30.6125,0.00329178
30.6225,0.00330276
30.6325,0.00331379
30.6425,0.00332488
30.6525,0.00333602
30.6625,0.00334721
30.6725,0.00335847
30.6825,0.00336978
30.6925,0.00338115
30.7025,0.00339257
30.7125,0.00340406
30.7225,0.0034156
30.7325,0.0034272
30.7425,0.00343886
30.7525,0.00345058
30.7625,0.00346236
30.7725,0.0034742
30.7825,0.0034861
30.7925,0.00349806
30.8025,0.00351008
30.8125,0.00352217
30.8225,0.00353431
30.8325,0.00354652
30.8425,0.0035588
30.8525,0.00357113
30.8625,0.00358353
30.8725,0.003596
30.8825,0.00360853
30.8925,0.00362113
30.9025,0.00363379
30.9125,0.00364652
30.9225,0.00365931
30.9325,0.00367218
30.9425,0.00368511
30.9525,0.00369811
30.9625,0.00371118
30.9725,0.00372431
30.9825,0.00373752
30.9925,0.0037508
31.0025,0.00376415
31.0125,0.00377757
31.0225,0.00379106
31.0325,0.00380462
31.0425,0.00381826
31.0525,0.00383197
31.0625,0.00384575
31.0725,0.00385961
31.0825,0.00387354
31.0925,0.00388755
31.1025,0.00390163
31.1125,0.00391579
31.1225,0.00393003
31.1325,0.00394435
31.1425,0.00395874
31.1525,0.00397321
31.1625,0.00398776
31.1725,0.00400239
31.1825,0.00401711
31.1925,0.0040319
31.2025,0.00404678
31.2125,0.00406173
31.2225,0.00407677
31.2325,0.0040919
31.2425,0.00410711
31.2525,0.0041224
31.2625,0.00413778
31.2725,0.00415324
31.2825,0.00416879
31.2925,0.00418443
31.3025,0.00420016
31.3125,0.00421597
31.3225,0.00423188
31.3325,0.00424787
31.3425,0.00426396
31.3525,0.00428013
31.3625,0.0042964
31.3725,0.00431276
31.3825,0.00432922
31.3925,0.00434577
31.4025,0.00436241
31.4125,0.00437915
31.4225,0.00439598
31.4325,0.00441292
31.4425,0.00442995
31.4525,0.00444708
31.4625,0.00446431
31.4725,0.00448163
31.4825,0.00449906
31.4925,0.0045166
31.5025,0.00453423
31.5125,0.00455197
31.5225,0.00456981
31.5325,0.00458775
31.5425,0.00460581
31.5525,0.00462396
31.5625,0.00464223
31.5725,0.0046606
31.5825,0.00467909
31.5925,0.00469768
31.6025,0.00471638
31.6125,0.0047352
31.6225,0.00475413
31.6325,0.00477317
31.6425,0.00479232
31.6525,0.00481159
31.6625,0.00483098
31.6725,0.00485049
31.6825,0.00487011
31.6925,0.00488985
31.7025,0.00490971
31.7125,0.00492969
31.7225,0.0049498
31.7325,0.00497003
31.7425,0.00499038
31.7525,0.00501086
31.7625,0.00503146
31.7725,0.00505219
31.7825,0.00507305
31.7925,0.00509403
31.8025,0.00511515
31.8125,0.0051364
31.8225,0.00515778
31.8325,0.00517929
31.8425,0.00520094
31.8525,0.00522273
31.8625,0.00524465
31.8725,0.00526671
31.8825,0.00528891
31.8925,0.00531124
31.9025,0.00533372
31.9125,0.00535635
31.9225,0.00537911
31.9325,0.00540203
31.9425,0.00542508
31.9525,0.00544829
31.9625,0.00547165
31.9725,0.00549515
31.9825,0.00551881
31.9925,0.00554262
32.0025,0.00556658
32.0125,0.0055907
32.0225,0.00561497
32.0325,0.00563941
32.0425,0.005664
32.0525,0.00568875
32.0625,0.00571367
32.0725,0.00573875
32.0825,0.00576399
32.0925,0.0057894
32.1025,0.00581498
32.1125,0.00584073
32.1225,0.00586665
32.1325,0.00589274
32.1425,0.00591901
32.1525,0.00594545
32.1625,0.00597207
32.1725,0.00599886
32.1825,0.00602584
32.1925,0.006053
32.2025,0.00608034
32.2125,0.00610787
32.2225,0.00613559
32.2325,0.00616349
32.2425,0.00619158
32.2525,0.00621987
32.2625,0.00624835
32.2725,0.00627703
32.2825,0.0063059
32.2925,0.00633497
32.3025,0.00636424
32.3125,0.00639372
32.3225,0.0064234
32.3325,0.00645328
32.3425,0.00648338
32.3525,0.00651368
32.3625,0.0065442
32.3725,0.00657493
32.3825,0.00660588
32.3925,0.00663705
32.4025,0.00666844
32.4125,0.00670005
32.4225,0.00673188
32.4325,0.00676394
32.4425,0.00679623
32.4525,0.00682875
32.4625,0.00686151
32.4725,0.0068945
32.4825,0.00692772
32.4925,0.00696119
32.5025,0.0069949
32.5125,0.00702886
32.5225,0.00706306
32.5325,0.00709751
32.5425,0.00713221
32.5525,0.00716717
32.5625,0.00720239
32.5725,0.00723786
32.5825,0.00727359
32.5925,0.0073096
32.6025,0.00734586
32.6125,0.0073824
32.6225,0.00741921
32.6325,0.00745629
32.6425,0.00749365
32.6525,0.0075313
32.6625,0.00756922
32.6725,0.00760744
32.6825,0.00764594
32.6925,0.00768473
32.7025,0.00772382
32.7125,0.00776321
32.7225,0.00780289
32.7325,0.00784289
32.7425,0.00788318
32.7525,0.00792379
32.7625,0.00796472
32.7725,0.00800596
32.7825,0.00804752
32.7925,0.0080894
32.8025,0.00813161
32.8125,0.00817415
32.8225,0.00821702
32.8325,0.00826023
32.8425,0.00830378
32.8525,0.00834767
32.8625,0.00839192
32.8725,0.00843651
32.8825,0.00848146
32.8925,0.00852676
32.9025,0.00857243
32.9125,0.00861847
32.9225,0.00866488
32.9325,0.00871166
32.9425,0.00875882
32.9525,0.00880636
32.9625,0.00885429
32.9725,0.00890261
32.9825,0.00895132
32.9925,0.00900044
33.0025,0.00904996
33.0125,0.00909988
33.0225,0.00915022
33.0325,0.00920098
33.0425,0.00925215
33.0525,0.00930376
33.0625,0.00935579
33.0725,0.00940826
33.0825,0.00946117
33.0925,0.00951453
33.1025,0.00956834
33.1125,0.0096226
33.1225,0.00967733
33.1325,0.00973252
33.1425,0.00978818
33.1525,0.00984432
33.1625,0.00990094
33.1725,0.00995805
33.1825,0.0100157
33.1925,0.0100738
33.2025,0.0101324
33.2125,0.0101915
33.2225,0.0102511
33.2325,0.0103113
33.2425,0.010372
33.2525,0.0104332
33.2625,0.0104949
33.2725,0.0105572
33.2825,0.0106201
33.2925,0.0106835
33.3025,0.0107475
33.3125,0.0108121
33.3225,0.0108772
33.3325,0.010943
33.3425,0.0110093
33.3525,0.0110762
33.3625,0.0111438
33.3725,0.0112119
33.3825,0.0112807
33.3925,0.0113501
33.4025,0.0114201
33.4125,0.0114908
33.4225,0.0115622
33.4325,0.0116342
33.4425,0.0117069
33.4525,0.0117803
33.4625,0.0118543
33.4725,0.0119291
33.4825,0.0120045
33.4925,0.0120807
33.5025,0.0121576
33.5125,0.0122352
33.5225,0.0123136
33.5325,0.0123927
33.5425,0.0124726
33.5525,0.0125532
33.5625,0.0126347
33.5725,0.0127169
33.5825,0.0127999
33.5925,0.0128838
33.6025,0.0129684
33.6125,0.0130539
33.6225,0.0131402
33.6325,0.0132274
33.6425,0.0133155
33.6525,0.0134044
33.6625,0.0134942
33.6725,0.0135849
33.6825,0.0136766
33.6925,0.0137691
33.7025,0.0138626
33.7125,0.013957
33.7225,0.0140524
33.7325,0.0141488
33.7425,0.0142462
33.7525,0.0143446
33.7625,0.0144439
33.7725,0.0145444
33.7825,0.0146458
33.7925,0.0147483
33.8025,0.0148519
33.8125,0.0149566
33.8225,0.0150624
33.8325,0.0151693
33.8425,0.0152773
33.8525,0.0153865
33.8625,0.0154969
33.8725,0.0156084
33.8825,0.0157211
33.8925,0.0158351
33.9025,0.0159503
33.9125,0.0160667
33.9225,0.0161844
33.9325,0.0163034
33.9425,0.0164237
33.9525,0.0165453
33.9625,0.0166683
33.9725,0.0167927
33.9825,0.0169184
33.9925,0.0170455
34.0025,0.0171741
34.0125,0.0173041
34.0225,0.0174356
34.0325,0.0175686
34.0425,0.0177031
34.0525,0.0178391
34.0625,0.0179767
34.0725,0.0181158
34.0825,0.0182566
34.0925,0.0183991
34.1025,0.0185431
34.1125,0.0186889
34.1225,0.0188364
34.1325,0.0189856
34.1425,0.0191366
34.1525,0.0192893
34.1625,0.0194439
34.1725,0.0196003
34.1825,0.0197587
34.1925,0.0199189
34.2025,0.0200811
34.2125,0.0202452
34.2225,0.0204113
34.2325,0.0205795
34.2425,0.0207497
34.2525,0.0209221
34.2625,0.0210966
34.2725,0.0212732
34.2825,0.0214521
34.2925,0.0216332
34.3025,0.0218166
34.3125,0.0220022
34.3225,0.0221903
34.3325,0.0223808
34.3425,0.0225736
34.3525,0.022769
34.3625,0.0229669
34.3725,0.0231674
34.3825,0.0233704
34.3925,0.0235761
34.4025,0.0237846
34.4125,0.0239957
34.4225,0.0242097
34.4325,0.0244265
34.4425,0.0246462
34.4525,0.0248688
34.4625,0.0250944
34.4725,0.0253231
34.4825,0.0255549
34.4925,0.0257898
34.5025,0.026028
34.5125,0.0262694
34.5225,0.0265142
34.5325,0.0267624
34.5425,0.027014
34.5525,0.0272691
34.5625,0.0275278
34.5725,0.0277902
34.5825,0.0280563
34.5925,0.0283262
34.6025,0.0286
34.6125,0.0288777
34.6225,0.0291594
34.6325,0.0294452
34.6425,0.0297352
34.6525,0.0300294
34.6625,0.0303279
34.6725,0.0306308
34.6825,0.0309383
34.6925,0.0312503
34.7025,0.031567
34.7125,0.0318885
34.7225,0.0322148
34.7325,0.0325461
34.7425,0.0328825
34.7525,0.033224
34.7625,0.0335708
34.7725,0.033923
34.7825,0.0342806
34.7925,0.0346438
34.8025,0.0350128
34.8125,0.0353876
34.8225,0.0357683
34.8325,0.0361551
34.8425,0.0365481
34.8525,0.0369475
34.8625,0.0373533
34.8725,0.0377657
34.8825,0.0381849
34.8925,0.038611
34.9025,0.0390441
34.9125,0.0394844
34.9225,0.039932
34.9325,0.0403872
34.9425,0.04085
34.9525,0.0413207
34.9625,0.0417995
34.9725,0.0422864
34.9825,0.0427817
34.9925,0.0432856
35.0025,0.0437983
35.0125,0.0443199
35.0225,0.0448508
35.0325,0.045391
35.0425,0.0459408
35.0525,0.0465005
35.0625,0.0470702
35.0725,0.0476503
35.0825,0.0482408
35.0925,0.0488422
35.1025,0.0494546
35.1125,0.0500784
35.1225,0.0507137
35.1325,0.051361
35.1425,0.0520204
35.1525,0.0526922
35.1625,0.0533769
35.1725,0.0540746
35.1825,0.0547857
35.1925,0.0555106
35.2025,0.0562496
35.2125,0.057003
35.2225,0.0577713
35.2325,0.0585548
35.2425,0.0593539
35.2525,0.0601689
35.2625,0.0610004
35.2725,0.0618488
35.2825,0.0627144
35.2925,0.0635978
35.3025,0.0644994
35.3125,0.0654197
35.3225,0.0663592
35.3325,0.0673185
35.3425,0.068298
35.3525,0.0692984
35.3625,0.0703201
35.3725,0.0713638
35.3825,0.0724301
35.3925,0.0735197
35.4025,0.0746331
35.4125,0.0757711
35.4225,0.0769343
35.4325,0.0781235
35.4425,0.0793394
35.4525,0.0805828
35.4625,0.0818545
35.4725,0.0831553
35.4825,0.084486
35.4925,0.0858477
35.5025,0.087241
35.5125,0.0886671
35.5225,0.0901269
35.5325,0.0916213
35.5425,0.0931515
35.5525,0.0947186
35.5625,0.0963236
35.5725,0.0979678
35.5825,0.0996523
35.5925,0.101378
35.6025,0.103147
35.6125,0.104961
35.6225,0.106819
35.6325,0.108725
35.6425,0.11068
35.6525,0.112685
35.6625,0.114741
35.6725,0.116851
35.6825,0.119016
35.6925,0.121237
35.7025,0.123518
35.7125,0.125859
35.7225,0.128263
35.7325,0.130732
35.7425,0.133268
35.7525,0.135873
35.7625,0.138549
35.7725,0.141299
35.7825,0.144126
35.7925,0.147031
35.8025,0.150018
35.8125,0.153089
35.8225,0.156248
35.8325,0.159497
35.8425,0.162838
35.8525,0.166277
35.8625,0.169814
35.8725,0.173455
35.8825,0.177203
35.8925,0.18106
35.9025,0.185032
35.9125,0.189121
35.9225,0.193332
35.9325,0.197668
35.9425,0.202135
35.9525,0.206736
35.9625,0.211476
35.9725,0.21636
35.9825,0.221392
35.9925,0.226576
36.0025,0.231918
36.0125,0.237424
36.0225,0.243097
36.0325,0.248943
36.0425,0.254968
36.0525,0.261176
36.0625,0.267574
36.0725,0.274165
36.0825,0.280957
36.0925,0.287953
36.1025,0.29516
36.1125,0.302582
36.1225,0.310225
36.1325,0.318093
36.1425,0.326191
36.1525,0.334522
36.1625,0.343092
36.1725,0.351903
36.1825,0.360959
36.1925,0.370262
36.2025,0.379813
36.2125,0.389614
36.2225,0.399665
36.2325,0.409963
36.2425,0.420508
36.2525,0.431296
36.2625,0.442321
36.2725,0.453577
36.2825,0.465056
36.2925,0.476747
36.3025,0.488638
36.3125,0.500713
36.3225,0.512957
36.3325,0.525347
36.3425,0.537863
36.3525,0.550477
36.3625,0.563162
36.3725,0.575885
36.3825,0.588611
36.3925,0.601301
36.4025,0.613914
36.4125,0.626405
36.4225,0.638725
36.4325,0.650824
36.4425,0.662648
36.4525,0.674142
36.4625,0.685248
36.4725,0.695909
36.4825,0.706064
36.4925,0.715654
36.5025,0.724622
36.5125,0.732909
36.5225,0.740462
36.5325,0.747229
36.5425,0.753162
36.5525,0.758218
36.5625,0.762361
36.5725,0.765559
36.5825,0.767788
36.5925,0.769031
36.6025,0.769278
36.6125,0.768526
36.6225,0.766783
36.6325,0.764062
36.6425,0.760382
36.6525,0.755773
36.6625,0.750268
36.6725,0.743908
36.6825,0.736738
36.6925,0.728807
36.7025,0.720168
36.7125,0.710879
36.7225,0.700995
36.7325,0.690577
36.7425,0.679684
36.7525,0.668374
36.7625,0.656706
36.7725,0.644736
36.7825,0.632519
36.7925,0.620107
36.8025,0.607548
36.8125,0.594891
36.8225,0.582178
36.8325,0.569449
36.8425,0.556741
36.8525,0.544088
36.8625,0.53152
36.8725,0.519064
36.8825,0.506746
36.8925,0.494585
36.9025,0.482601
36.9125,0.470809
36.9225,0.459224
36.9325,0.447857
36.9425,0.436716
36.9525,0.425811
36.9625,0.415145
36.9725,0.404724
36.9825,0.394551
36.9925,0.384627
37.0025,0.374952
37.0125,0.365527
37.0225,0.356349
37.0325,0.347417
37.0425,0.338728
37.0525,0.33028
37.0625,0.322067
37.0725,0.314086
37.0825,0.306332
37.0925,0.298802
37.1025,0.291489
37.1125,0.284389
37.1225,0.277497
37.1325,0.270807
37.1425,0.264315
37.1525,0.258013
37.1625,0.251899
37.1725,0.245965
37.1825,0.240207
37.1925,0.234619
37.2025,0.229197
37.2125,0.223935
37.2225,0.218828
37.2325,0.213872
37.2425,0.209062
37.2525,0.204393
37.2625,0.19986
37.2725,0.195459
37.2825,0.191187
37.2925,0.187038
37.3025,0.183009
37.3125,0.179095
37.3225,0.175294
37.3325,0.171601
37.3425,0.168013
37.3525,0.164526
37.3625,0.161137
37.3725,0.157842
37.3825,0.15464
37.3925,0.151526
37.4025,0.148497
37.4125,0.145552
37.4225,0.142687
37.4325,0.139899
37.4425,0.137187
37.4525,0.134547
37.4625,0.131977
37.4725,0.129475
37.4825,0.12704
37.4925,0.124668
37.5025,0.122357
37.5125,0.120107
37.5225,0.117914
37.5325,0.115777
37.5425,0.113694
37.5525,0.111664
37.5625,0.109685
37.5725,0.107756
37.5825,0.105874
37.5925,0.104038
37.6025,0.102247
37.6125,0.1005
37.6225,0.0987953
37.6325,0.0971314
37.6425,0.0955072
37.6525,0.0939215
37.6625,0.0923732
37.6725,0.0908612
37.6825,0.0893844
37.6925,0.0879418
37.7025,0.0865324
37.7125,0.0851552
37.7225,0.0838093
37.7325,0.0824938
37.7425,0.0812078
37.7525,0.0799505
37.7625,0.0787211
37.7725,0.0775188
37.7825,0.0763429
37.7925,0.0751925
37.8025,0.074067
37.8125,0.0729658
37.8225,0.071888
37.8325,0.0708332
37.8425,0.0698007
37.8525,0.0687899
37.8625,0.0678001
37.8725,0.0668309
37.8825,0.0658817
37.8925,0.064952
37.9025,0.0640412
37.9125,0.0631488
37.9225,0.0622745
37.9325,0.0614177
37.9425,0.0605779
37.9525,0.0597547
37.9625,0.0589478
37.9725,0.0581567
37.9825,0.0573809
37.9925,0.0566202
38.0025,0.0558741
38.0125,0.0551423
38.0225,0.0544244
38.0325,0.0537201
38.0425,0.053029
38.0525,0.0523509
38.0625,0.0516854
38.0725,0.0510322
38.0825,0.050391
38.0925,0.0497615
38.1025,0.0491435
38.1125,0.0485367
38.1225,0.0479408
38.1325,0.0473556
38.1425,0.0467808
38.1525,0.0462162
38.1625,0.0456616
38.1725,0.0451166
38.1825,0.0445812
38.1925,0.044055
38.2025,0.0435379
38.2125,0.0430297
38.2225,0.0425302
38.2325,0.0420391
38.2425,0.0415564
38.2525,0.0410817
38.2625,0.040615
38.2725,0.0401561
38.2825,0.0397047
38.2925,0.0392608
38.3025,0.0388242
38.3125,0.0383946
38.3225,0.0379721
38.3325,0.0375563
38.3425,0.0371473
38.3525,0.0367447
38.3625,0.0363486
38.3725,0.0359588
38.3825,0.035575
38.3925,0.0351973
38.4025,0.0348255
38.4125,0.0344595
38.4225,0.0340991
38.4325,0.0337442
38.4425,0.0333948
38.4525,0.0330507
38.4625,0.0327118
38.4725,0.032378
38.4825,0.0320492
38.4925,0.0317253
38.5025,0.0314063
38.5125,0.0310919
38.5225,0.0307822
38.5325,0.0304771
38.5425,0.0301764
38.5525,0.02988
38.5625,0.029588
38.5725,0.0293002
38.5825,0.0290164
38.5925,0.0287368
38.6025,0.0284611
38.6125,0.0281893
38.6225,0.0279213
38.6325,0.0276571
38.6425,0.0273966
38.6525,0.0271396
38.6625,0.0268863
38.6725,0.0266364
38.6825,0.02639
38.6925,0.0261469
38.7025,0.0259071
38.7125,0.0256706
38.7225,0.0254373
38.7325,0.0252071
38.7425,0.0249799
38.7525,0.0247558
38.7625,0.0245347
38.7725,0.0243165
38.7825,0.0241011
38.7925,0.0238886
38.8025,0.0236788
38.8125,0.0234718
38.8225,0.0232674
38.8325,0.0230657
38.8425,0.0228665
38.8525,0.0226699
38.8625,0.0224758
38.8725,0.0222841
38.8825,0.0220949
38.8925,0.0219081
38.9025,0.0217235
38.9125,0.0215413
38.9225,0.0213614
38.9325,0.0211836
38.9425,0.0210081
38.9525,0.0208347
38.9625,0.0206634
38.9725,0.0204942
38.9825,0.0203271
38.9925,0.0201619
39.0025,0.0199988
39.0125,0.0198376
39.0225,0.0196784
39.0325,0.019521
39.0425,0.0193655
39.0525,0.0192118
39.0625,0.01906
39.0725,0.0189099
39.0825,0.0187616
39.0925,0.018615
39.1025,0.0184701
39.1125,0.0183268
39.1225,0.0181852
39.1325,0.0180453
39.1425,0.0179069
39.1525,0.0177701
39.1625,0.0176349
39.1725,0.0175011
39.1825,0.0173689
39.1925,0.0172382
39.2025,0.0171089
39.2125,0.0169811
39.2225,0.0168546
39.2325,0.0167296
39.2425,0.016606
39.2525,0.0164837
39.2625,0.0163627
39.2725,0.0162431
39.2825,0.0161247
39.2925,0.0160077
39.3025,0.0158919
39.3125,0.0157773
39.3225,0.015664
39.3325,0.0155518
39.3425,0.0154409
39.3525,0.0153311
39.3625,0.0152225
39.3725,0.0151151
39.3825,0.0150088
39.3925,0.0149035
39.4025,0.0147994
39.4125,0.0146964
39.4225,0.0145944
39.4325,0.0144935
39.4425,0.0143936
39.4525,0.0142947
39.4625,0.0141968
39.4725,0.0141
39.4825,0.0140041
39.4925,0.0139092
39.5025,0.0138152
39.5125,0.0137222
39.5225,0.0136301
39.5325,0.0135389
39.5425,0.0134487
39.5525,0.0133593
39.5625,0.0132708
39.5725,0.0131832
39.5825,0.0130965
39.5925,0.0130106
39.6025,0.0129255
39.6125,0.0128413
39.6225,0.0127578
39.6325,0.0126752
39.6425,0.0125934
39.6525,0.0125124
39.6625,0.0124321
39.6725,0.0123526
39.6825,0.0122739
39.6925,0.0121959
39.7025,0.0121186
39.7125,0.0120421
39.7225,0.0119663
39.7325,0.0118912
39.7425,0.0118168
39.7525,0.0117431
39.7625,0.0116701
39.7725,0.0115977
39.7825,0.011526
39.7925,0.011455
39.8025,0.0113846
39.8125,0.0113149
39.8225,0.0112458
39.8325,0.0111774
39.8425,0.0111095
39.8525,0.0110423
39.8625,0.0109757
39.8725,0.0109096
39.8825,0.0108442
39.8925,0.0107794
39.9025,0.0107151
39.9125,0.0106514
39.9225,0.0105882
39.9325,0.0105257
39.9425,0.0104636
39.9525,0.0104021
39.9625,0.0103412
39.9725,0.0102808
39.9825,0.0102209
39.9925,0.0101615
40.0025,0.0101027
40.0125,0.0100443
40.0225,0.00998646
40.0325,0.00992911
40.0425,0.00987225
40.0525,0.00981587
40.0625,0.00975997
40.0725,0.00970455
40.0825,0.0096496
40.0925,0.00959511
40.1025,0.00954107
40.1125,0.00948749
40.1225,0.00943436
40.1325,0.00938167
40.1425,0.00932942
40.1525,0.00927761
40.1625,0.00922622
40.1725,0.00917526
40.1825,0.00912471
40.1925,0.00907458
40.2025,0.00902486
40.2125,0.00897555