File: li_2014/300_xrd/curve_total_fit.dat
29.4225,2.56394
29.4325,2.56403
29.4425,2.56412
29.4525,2.56421
29.4625,2.5643
29.4725,2.56439
29.4825,2.56448
29.4925,2.56457
29.5025,2.56467
29.5125,2.56476
29.5225,2.56486
29.5325,2.56495
29.5425,2.56505
29.5525,2.56515
29.5625,2.56525
29.5725,2.56535
29.5825,2.56545
29.5925,2.56555
29.6025,2.56566
29.6125,2.56576
29.6225,2.56587
29.6325,2.56598
29.6425,2.56609
29.6525,2.5662
29.6625,2.56631
29.6725,2.56642
29.6825,2.56653
29.6925,2.56665
29.7025,2.56676
29.7125,2.56688
29.7225,2.567
29.7325,2.56712
29.7425,2.56724
29.7525,2.56736
29.7625,2.56749
29.7725,2.56761
29.7825,2.56774
29.7925,2.56787
29.8025,2.568
29.8125,2.56813
29.8225,2.56826
29.8325,2.5684
29.8425,2.56853
29.8525,2.56867
29.8625,2.56881
29.8725,2.56895
29.8825,2.56909
29.8925,2.56924
29.9025,2.56938
29.9125,2.56953
29.9225,2.56968
29.9325,2.56983
29.9425,2.56999
29.9525,2.57014
29.9625,2.5703
29.9725,2.57046
29.9825,2.57062
29.9925,2.57079
30.0025,2.57095
30.0125,2.57112
30.0225,2.57129
30.0325,2.57146
30.0425,2.57163
30.0525,2.57181
30.0625,2.57199
30.0725,2.57217
30.0825,2.57236
30.0925,2.57254
30.1025,2.57273
30.1125,2.57292
30.1225,2.57312
30.1325,2.57331
30.1425,2.57351
30.1525,2.57371
30.1625,2.57392
30.1725,2.57412
30.1825,2.57433
30.1925,2.57455
30.2025,2.57476
30.2125,2.57498
30.2225,2.57521
30.2325,2.57543
30.2425,2.57566
30.2525,2.57589
30.2625,2.57613
30.2725,2.57637
30.2825,2.57661
30.2925,2.57685
30.3025,2.5771
30.3125,2.57736
30.3225,2.57761
30.3325,2.57787
30.3425,2.57814
30.3525,2.57841
30.3625,2.57868
30.3725,2.57896
30.3825,2.57924
30.3925,2.57952
30.4025,2.57981
30.4125,2.58011
30.4225,2.5804
30.4325,2.58071
30.4425,2.58102
30.4525,2.58133
30.4625,2.58165
30.4725,2.58197
30.4825,2.5823
30.4925,2.58263
30.5025,2.58297
30.5125,2.58332
30.5225,2.58367
30.5325,2.58402
30.5425,2.58439
30.5525,2.58475
30.5625,2.58513
30.5725,2.58551
30.5825,2.5859
30.5925,2.58629
30.6025,2.58669
30.6125,2.5871
30.6225,2.58751
30.6325,2.58793
30.6425,2.58836
30.6525,2.5888
30.6625,2.58924
30.6725,2.5897
30.6825,2.59016
30.6925,2.59062
30.7025,2.5911
30.7125,2.59159
30.7225,2.59208
30.7325,2.59259
30.7425,2.5931
30.7525,2.59362
30.7625,2.59415
30.7725,2.5947
30.7825,2.59525
30.7925,2.59581
30.8025,2.59639
30.8125,2.59697
30.8225,2.59757
30.8325,2.59818
30.8425,2.5988
30.8525,2.59943
30.8625,2.60008
30.8725,2.60073
30.8825,2.6014
30.8925,2.60209
30.9025,2.60279
30.9125,2.6035
30.9225,2.60423
30.9325,2.60497
30.9425,2.60573
30.9525,2.60651
30.9625,2.6073
30.9725,2.60811
30.9825,2.60893
30.9925,2.60977
31.0025,2.61064
31.0125,2.61152
31.0225,2.61242
31.0325,2.61334
31.0425,2.61428
31.0525,2.61524
31.0625,2.61622
31.0725,2.61723
31.0825,2.61826
31.0925,2.61931
31.1025,2.62039
31.1125,2.62149
31.1225,2.62262
31.1325,2.62377
31.1425,2.62496
31.1525,2.62617
31.1625,2.62741
31.1725,2.62868
31.1825,2.62999
31.1925,2.63132
31.2025,2.63269
31.2125,2.6341
31.2225,2.63554
31.2325,2.63702
31.2425,2.63853
31.2525,2.64009
31.2625,2.64169
31.2725,2.64332
31.2825,2.64501
31.2925,2.64674
31.3025,2.64851
31.3125,2.65034
31.3225,2.65222
31.3325,2.65414
31.3425,2.65613
31.3525,2.65817
31.3625,2.66027
31.3725,2.66243
31.3825,2.66465
31.3925,2.66694
31.4025,2.6693
31.4125,2.67173
31.4225,2.67423
31.4325,2.67681
31.4425,2.67947
31.4525,2.68221
31.4625,2.68504
31.4725,2.68796
31.4825,2.69098
31.4925,2.69409
31.5025,2.69731
31.5125,2.70063
31.5225,2.70406
31.5325,2.70762
31.5425,2.71129
31.5525,2.71509
31.5625,2.71903
31.5725,2.7231
31.5825,2.72733
31.5925,2.7317
31.6025,2.73624
31.6125,2.74094
31.6225,2.74582
31.6325,2.75089
31.6425,2.75615
31.6525,2.76162
31.6625,2.7673
31.6725,2.77321
31.6825,2.77935
31.6925,2.78575
31.7025,2.79241
31.7125,2.79935
31.7225,2.80658
31.7325,2.81412
31.7425,2.82199
31.7525,2.8302
31.7625,2.83878
31.7725,2.84774
31.7825,2.8571
31.7925,2.8669
31.8025,2.87716
31.8125,2.8879
31.8225,2.89915
31.8325,2.91095
31.8425,2.92332
31.8525,2.9363
31.8625,2.94994
31.8725,2.96426
31.8825,2.97932
31.8925,2.99516
31.9025,3.01183
31.9125,3.02938
31.9225,3.04787
31.9325,3.06736
31.9425,3.08791
31.9525,3.10959
31.9625,3.13247
31.9725,3.15663
31.9825,3.18215
31.9925,3.2091
32.0025,3.23759
32.0125,3.2677
32.0225,3.29952
32.0325,3.33315
32.0425,3.3687
32.0525,3.40624
32.0625,3.44589
32.0725,3.48774
32.0825,3.53186
32.0925,3.57833
32.1025,3.62721
32.1125,3.67854
32.1225,3.73233
32.1325,3.78856
32.1425,3.84716
32.1525,3.90802
32.1625,3.97096
32.1725,4.03573
32.1825,4.10199
32.1925,4.16932
32.2025,4.23717
32.2125,4.30492
32.2225,4.37181
32.2325,4.43697
32.2425,4.49947
32.2525,4.55826
32.2625,4.61229
32.2725,4.66047
32.2825,4.70177
32.2925,4.73523
32.3025,4.76004
32.3125,4.77559
32.3225,4.78147
32.3325,4.77753
32.3425,4.76391
32.3525,4.74095
32.3625,4.70927
32.3725,4.66965
32.3825,4.62303
32.3925,4.57044
32.4025,4.51296
32.4125,4.45165
32.4225,4.38757
32.4325,4.32165
32.4425,4.25478
32.4525,4.18772
32.4625,4.12113
32.4725,4.05554
32.4825,3.9914
32.4925,3.92905
32.5025,3.86876
32.5125,3.81071
32.5225,3.75503
32.5325,3.70178
32.5425,3.65098
32.5525,3.60265
32.5625,3.55672
32.5725,3.51316
32.5825,3.47188
32.5925,3.43281
32.6025,3.39584
32.6125,3.3609
32.6225,3.32788
32.6325,3.29668
32.6425,3.2672
32.6525,3.23936
32.6625,3.21306
32.6725,3.18821
32.6825,3.16472
32.6925,3.14253
32.7025,3.12154
32.7125,3.1017
32.7225,3.08292
32.7325,3.06515
32.7425,3.04832
32.7525,3.03239
32.7625,3.01729
32.7725,3.00297
32.7825,2.9894
32.7925,2.97652
32.8025,2.9643
32.8125,2.95269
32.8225,2.94167
32.8325,2.93119
32.8425,2.92123
32.8525,2.91175
32.8625,2.90274
32.8725,2.89416
32.8825,2.88599
32.8925,2.87821
32.9025,2.8708
32.9125,2.86373
32.9225,2.85699
32.9325,2.85056
32.9425,2.84443
32.9525,2.83858
32.9625,2.833
32.9725,2.82766
32.9825,2.82257
32.9925,2.8177
33.0025,2.81305
33.0125,2.80861
33.0225,2.80436
33.0325,2.8003
33.0425,2.79642
33.0525,2.79271
33.0625,2.78915
33.0725,2.78575
33.0825,2.7825
33.0925,2.77939
33.1025,2.77642
33.1125,2.77357
33.1225,2.77084
33.1325,2.76824
33.1425,2.76574
33.1525,2.76335
33.1625,2.76106
33.1725,2.75888
33.1825,2.75678
33.1925,2.75478
33.2025,2.75286
33.2125,2.75103
33.2225,2.74928
33.2325,2.7476
33.2425,2.746
33.2525,2.74447
33.2625,2.743
33.2725,2.7416
33.2825,2.74026
33.2925,2.73899
33.3025,2.73777
33.3125,2.7366
33.3225,2.73549
33.3325,2.73444
33.3425,2.73343
33.3525,2.73247
33.3625,2.73155
33.3725,2.73068
33.3825,2.72985
33.3925,2.72907
33.4025,2.72832
33.4125,2.72761
33.4225,2.72693
33.4325,2.7263
33.4425,2.72569
33.4525,2.72512
33.4625,2.72458
33.4725,2.72407
33.4825,2.72359
33.4925,2.72314
33.5025,2.72272
33.5125,2.72232
33.5225,2.72194
33.5325,2.7216
33.5425,2.72127
33.5525,2.72097
33.5625,2.72069
33.5725,2.72043
33.5825,2.72019
33.5925,2.71997
33.6025,2.71976
33.6125,2.71958
33.6225,2.71941
33.6325,2.71926
33.6425,2.71913
33.6525,2.71901
33.6625,2.71891
33.6725,2.71882
33.6825,2.71874
33.6925,2.71868
33.7025,2.71863
33.7125,2.71859
33.7225,2.71856
33.7325,2.71855
33.7425,2.71854
33.7525,2.71855
33.7625,2.71856
33.7725,2.71858
33.7825,2.71862
33.7925,2.71866
33.8025,2.7187
33.8125,2.71876
33.8225,2.71882
33.8325,2.71889
33.8425,2.71897
33.8525,2.71905
33.8625,2.71914
33.8725,2.71923
33.8825,2.71933
33.8925,2.71944
33.9025,2.71955
33.9125,2.71966
33.9225,2.71977
33.9325,2.71989
33.9425,2.72002
33.9525,2.72014
33.9625,2.72027
33.9725,2.7204
33.9825,2.72054
33.9925,2.72067
34.0025,2.72081
34.0125,2.72095
34.0225,2.72109
34.0325,2.72123
34.0425,2.72138
34.0525,2.72152
34.0625,2.72167
34.0725,2.72181
34.0825,2.72196
34.0925,2.7221
34.1025,2.72225
34.1125,2.72239
34.1225,2.72254
34.1325,2.72268
34.1425,2.72282
34.1525,2.72296
34.1625,2.72311
34.1725,2.72325
34.1825,2.72338
34.1925,2.72352
34.2025,2.72366
34.2125,2.72379
34.2225,2.72392
34.2325,2.72405
34.2425,2.72418
34.2525,2.7243
34.2625,2.72443
34.2725,2.72455
34.2825,2.72467
34.2925,2.72478
34.3025,2.7249
34.3125,2.72501
34.3225,2.72512
34.3325,2.72522
34.3425,2.72533
34.3525,2.72543
34.3625,2.72552
34.3725,2.72562
34.3825,2.72571
34.3925,2.72579
34.4025,2.72588
34.4125,2.72596
34.4225,2.72604
34.4325,2.72611
34.4425,2.72619
34.4525,2.72626
34.4625,2.72632
34.4725,2.72638
34.4825,2.72644
34.4925,2.7265
34.5025,2.72655
34.5125,2.7266
34.5225,2.72664
34.5325,2.72668
34.5425,2.72672
34.5525,2.72676
34.5625,2.72678
34.5725,2.72681
34.5825,2.72683
34.5925,2.72685
34.6025,2.72687
34.6125,2.72688
34.6225,2.72688
34.6325,2.72689
34.6425,2.72689
34.6525,2.72689
34.6625,2.72688
34.6725,2.72687
34.6825,2.72686
34.6925,2.72685
34.7025,2.72683
34.7125,2.72681
34.7225,2.72679
34.7325,2.72676
34.7425,2.72673
34.7525,2.72671
34.7625,2.72667
34.7725,2.72664
34.7825,2.7266
34.7925,2.72657
34.8025,2.72653
34.8125,2.72649
34.8225,2.72644
34.8325,2.7264
34.8425,2.72636
34.8525,2.72631
34.8625,2.72627
34.8725,2.72622
34.8825,2.72618
34.8925,2.72613
34.9025,2.72609
34.9125,2.72604
34.9225,2.726
34.9325,2.72596
34.9425,2.72591
34.9525,2.72587
34.9625,2.72583
34.9725,2.7258
34.9825,2.72576
34.9925,2.72573
35.0025,2.7257
35.0125,2.72567
35.0225,2.72565
35.0325,2.72563
35.0425,2.72561
35.0525,2.7256
35.0625,2.72559
35.0725,2.72559
35.0825,2.72559
35.0925,2.72559
35.1025,2.72561
35.1125,2.72563
35.1225,2.72565
35.1325,2.72568
35.1425,2.72572
35.1525,2.72577
35.1625,2.72582
35.1725,2.72589
35.1825,2.72596
35.1925,2.72604
35.2025,2.72613
35.2125,2.72624
35.2225,2.72635
35.2325,2.72647
35.2425,2.72661
35.2525,2.72675
35.2625,2.72691
35.2725,2.72709
35.2825,2.72727
35.2925,2.72747
35.3025,2.72769
35.3125,2.72792
35.3225,2.72817
35.3325,2.72843
35.3425,2.72872
35.3525,2.72902
35.3625,2.72933
35.3725,2.72967
35.3825,2.73003
35.3925,2.73041
35.4025,2.73081
35.4125,2.73123
35.4225,2.73168
35.4325,2.73215
35.4425,2.73264
35.4525,2.73316
35.4625,2.73371
35.4725,2.73429
35.4825,2.73489
35.4925,2.73552
35.5025,2.73619
35.5125,2.73688
35.5225,2.73761
35.5325,2.73837
35.5425,2.73917
35.5525,2.74
35.5625,2.74087
35.5725,2.74178
35.5825,2.74273
35.5925,2.74372
35.6025,2.74475
35.6125,2.74583
35.6225,2.74695
35.6325,2.74812
35.6425,2.74934
35.6525,2.75061
35.6625,2.75193
35.6725,2.75331
35.6825,2.75474
35.6925,2.75623
35.7025,2.75778
35.7125,2.75939
35.7225,2.76106
35.7325,2.7628
35.7425,2.76461
35.7525,2.76649
35.7625,2.76844
35.7725,2.77046
35.7825,2.77257
35.7925,2.77475
35.8025,2.77702
35.8125,2.77938
35.8225,2.78182
35.8325,2.78435
35.8425,2.78699
35.8525,2.78971
35.8625,2.79255
35.8725,2.79548
35.8825,2.79853
35.8925,2.80168
35.9025,2.80496
35.9125,2.80835
35.9225,2.81187
35.9325,2.81552
35.9425,2.8193
35.9525,2.82322
35.9625,2.82727
35.9725,2.83148
35.9825,2.83584
35.9925,2.84035
36.0025,2.84502
36.0125,2.84986
36.0225,2.85487
36.0325,2.86006
36.0425,2.86543
36.0525,2.87098
36.0625,2.87673
36.0725,2.88268
36.0825,2.88883
36.0925,2.89519
36.1025,2.90176
36.1125,2.90855
36.1225,2.91557
36.1325,2.92281
36.1425,2.93029
36.1525,2.93801
36.1625,2.94596
36.1725,2.95417
36.1825,2.96262
36.1925,2.97132
36.2025,2.98028
36.2125,2.98949
36.2225,2.99895
36.2325,3.00867
36.2425,3.01863
36.2525,3.02885
36.2625,3.0393
36.2725,3.04999
36.2825,3.06091
36.2925,3.07204
36.3025,3.08338
36.3125,3.09491
36.3225,3.10661
36.3325,3.11846
36.3425,3.13044
36.3525,3.14252
36.3625,3.15468
36.3725,3.16688
36.3825,3.17909
36.3925,3.19126
36.4025,3.20337
36.4125,3.21535
36.4225,3.22717
36.4325,3.23878
36.4425,3.25011
36.4525,3.26112
36.4625,3.27174
36.4725,3.28193
36.4825,3.29161
36.4925,3.30073
36.5025,3.30924
36.5125,3.31706
36.5225,3.32416
36.5325,3.33048
36.5425,3.33597
36.5525,3.34058
36.5625,3.34429
36.5725,3.34705
36.5825,3.34886
36.5925,3.34968
36.6025,3.3495
36.6125,3.34834
36.6225,3.34619
36.6325,3.34306
36.6425,3.33898
36.6525,3.33397
36.6625,3.32808
36.6725,3.32133
36.6825,3.31378
36.6925,3.30547
36.7025,3.29645
36.7125,3.28679
36.7225,3.27655
36.7325,3.26577
36.7425,3.25452
36.7525,3.24285
36.7625,3.23084
36.7725,3.21852
36.7825,3.20596
36.7925,3.19322
36.8025,3.18033
36.8125,3.16734
36.8225,3.1543
36.8325,3.14125
36.8425,3.12823
36.8525,3.11527
36.8625,3.10239
36.8725,3.08963
36.8825,3.07701
36.8925,3.06456
36.9025,3.05228
36.9125,3.0402
36.9225,3.02833
36.9325,3.01668
36.9425,3.00527
36.9525,2.99409
36.9625,2.98315
36.9725,2.97247
36.9825,2.96203
36.9925,2.95185
37.0025,2.94192
37.0125,2.93224
37.0225,2.92282
37.0325,2.91364
37.0425,2.90471
37.0525,2.89603
37.0625,2.88758
37.0725,2.87937
37.0825,2.87139
37.0925,2.86363
37.1025,2.8561
37.1125,2.84878
37.1225,2.84168
37.1325,2.83478
37.1425,2.82808
37.1525,2.82157
37.1625,2.81525
37.1725,2.80912
37.1825,2.80317
37.1925,2.79739
37.2025,2.79178
37.2125,2.78633
37.2225,2.78104
37.2325,2.7759
37.2425,2.77091
37.2525,2.76607
37.2625,2.76136
37.2725,2.75679
37.2825,2.75236
37.2925,2.74804
37.3025,2.74385
37.3125,2.73978
37.3225,2.73582
37.3325,2.73197
37.3425,2.72824
37.3525,2.7246
37.3625,2.72106
37.3725,2.71763
37.3825,2.71428
37.3925,2.71103
37.4025,2.70786
37.4125,2.70478
37.4225,2.70179
37.4325,2.69887
37.4425,2.69603
37.4525,2.69326
37.4625,2.69057
37.4725,2.68795
37.4825,2.68539
37.4925,2.6829
37.5025,2.68048
37.5125,2.67811
37.5225,2.67581
37.5325,2.67356
37.5425,2.67137
37.5525,2.66924
37.5625,2.66715
37.5725,2.66512
37.5825,2.66314
37.5925,2.66121
37.6025,2.65932
37.6125,2.65748
37.6225,2.65568
37.6325,2.65392
37.6425,2.65221
37.6525,2.65054
37.6625,2.6489
37.6725,2.6473
37.6825,2.64574
37.6925,2.64422
37.7025,2.64273
37.7125,2.64127
37.7225,2.63985
37.7325,2.63846
37.7425,2.6371
37.7525,2.63577
37.7625,2.63446
37.7725,2.63319
37.7825,2.63195
37.7925,2.63073
37.8025,2.62954
37.8125,2.62837
37.8225,2.62723
37.8325,2.62611
37.8425,2.62501
37.8525,2.62394
37.8625,2.62289
37.8725,2.62187
37.8825,2.62086
37.8925,2.61987
37.9025,2.61891
37.9125,2.61796
37.9225,2.61703
37.9325,2.61612
37.9425,2.61523
37.9525,2.61436
37.9625,2.6135
37.9725,2.61266
37.9825,2.61184
37.9925,2.61103
38.0025,2.61024
38.0125,2.60946
38.0225,2.6087
38.0325,2.60795
38.0425,2.60722
38.0525,2.6065
38.0625,2.60579
38.0725,2.6051
38.0825,2.60442
38.0925,2.60375
38.1025,2.6031
38.1125,2.60245
38.1225,2.60182
38.1325,2.6012
38.1425,2.60059
38.1525,2.59999
38.1625,2.5994
38.1725,2.59882
38.1825,2.59826
38.1925,2.5977
38.2025,2.59715
38.2125,2.59661
38.2225,2.59608
38.2325,2.59556
38.2425,2.59505
38.2525,2.59455
38.2625,2.59405
38.2725,2.59357
38.2825,2.59309
38.2925,2.59262
38.3025,2.59215
38.3125,2.5917
38.3225,2.59125
38.3325,2.59081
38.3425,2.59038
38.3525,2.58995
38.3625,2.58953
38.3725,2.58912
38.3825,2.58871
38.3925,2.58831
38.4025,2.58792
38.4125,2.58753
38.4225,2.58715
38.4325,2.58678
38.4425,2.58641
38.4525,2.58604
38.4625,2.58568
38.4725,2.58533
38.4825,2.58498
38.4925,2.58464
38.5025,2.5843
38.5125,2.58397
38.5225,2.58364
38.5325,2.58332
38.5425,2.583
38.5525,2.58269
38.5625,2.58238
38.5725,2.58208
38.5825,2.58178
38.5925,2.58148
38.6025,2.58119
38.6125,2.58091
38.6225,2.58062
38.6325,2.58034
38.6425,2.58007
38.6525,2.5798
38.6625,2.57953
38.6725,2.57927
38.6825,2.57901
38.6925,2.57875
38.7025,2.5785
38.7125,2.57825
38.7225,2.578
38.7325,2.57776
38.7425,2.57752
38.7525,2.57728
38.7625,2.57705
38.7725,2.57682
38.7825,2.57659
38.7925,2.57637
38.8025,2.57615
38.8125,2.57593
38.8225,2.57571
38.8325,2.5755
38.8425,2.57529
38.8525,2.57508
38.8625,2.57488
38.8725,2.57468
38.8825,2.57448
38.8925,2.57428
38.9025,2.57409
38.9125,2.57389
38.9225,2.5737
38.9325,2.57352
38.9425,2.57333
38.9525,2.57315
38.9625,2.57297
38.9725,2.57279
38.9825,2.57261
38.9925,2.57244
39.0025,2.57227
39.0125,2.5721
39.0225,2.57193
39.0325,2.57176
39.0425,2.5716
39.0525,2.57144
39.0625,2.57128
39.0725,2.57112
39.0825,2.57096
39.0925,2.57081
39.1025,2.57066
39.1125,2.5705
39.1225,2.57036
39.1325,2.57021
39.1425,2.57006
39.1525,2.56992
39.1625,2.56977
39.1725,2.56963
39.1825,2.56949
39.1925,2.56936
39.2025,2.56922
39.2125,2.56908
39.2225,2.56895
39.2325,2.56882
39.2425,2.56869
39.2525,2.56856
39.2625,2.56843
39.2725,2.5683
39.2825,2.56818
39.2925,2.56806
39.3025,2.56793
39.3125,2.56781
39.3225,2.56769
39.3325,2.56757
39.3425,2.56746
39.3525,2.56734
39.3625,2.56723
39.3725,2.56711
39.3825,2.567
39.3925,2.56689
39.4025,2.56678
39.4125,2.56667
39.4225,2.56656
39.4325,2.56645
39.4425,2.56635
39.4525,2.56624
39.4625,2.56614
39.4725,2.56604
39.4825,2.56593
39.4925,2.56583
39.5025,2.56573
39.5125,2.56563
39.5225,2.56554
39.5325,2.56544
39.5425,2.56534
39.5525,2.56525
39.5625,2.56516
39.5725,2.56506
39.5825,2.56497
39.5925,2.56488
39.6025,2.56479
39.6125,2.5647
39.6225,2.56461
39.6325,2.56452
39.6425,2.56444
39.6525,2.56435
39.6625,2.56426
39.6725,2.56418
39.6825,2.56409
39.6925,2.56401
39.7025,2.56393
39.7125,2.56385
39.7225,2.56377
39.7325,2.56369
39.7425,2.56361
39.7525,2.56353
39.7625,2.56345
39.7725,2.56337
39.7825,2.5633
39.7925,2.56322
39.8025,2.56315
39.8125,2.56307
39.8225,2.563
39.8325,2.56292
39.8425,2.56285
39.8525,2.56278
39.8625,2.56271
39.8725,2.56264
39.8825,2.56257
39.8925,2.5625
39.9025,2.56243
39.9125,2.56236
39.9225,2.56229
39.9325,2.56223
39.9425,2.56216
39.9525,2.56209
39.9625,2.56203
39.9725,2.56196
39.9825,2.5619
39.9925,2.56183
40.0025,2.56177
40.0125,2.56171
40.0225,2.56165
40.0325,2.56158
40.0425,2.56152
40.0525,2.56146
40.0625,2.5614
40.0725,2.56134
40.0825,2.56128
40.0925,2.56123
40.1025,2.56117
40.1125,2.56111
40.1225,2.56105
40.1325,2.56099
40.1425,2.56094
40.1525,2.56088
40.1625,2.56083
40.1725,2.56077
40.1825,2.56072
40.1925,2.56066
40.2025,2.56061
40.2125,2.56056