File: mohanta_2013/100nm/raman/curve_2_fit.dat
511.395,0.0084333
511.495,0.00846218
511.595,0.00849122
511.695,0.0085204
511.795,0.00854973
511.895,0.00857921
511.995,0.00860884
512.095,0.00863862
512.195,0.00866856
512.295,0.00869866
512.395,0.00872891
512.495,0.00875931
512.595,0.00878988
512.695,0.0088206
512.795,0.00885148
512.895,0.00888253
512.995,0.00891373
513.095,0.0089451
513.195,0.00897664
513.295,0.00900834
513.395,0.0090402
513.495,0.00907224
513.595,0.00910444
513.695,0.00913682
513.795,0.00916937
513.895,0.00920208
513.995,0.00923498
514.095,0.00926805
514.195,0.00930129
514.295,0.00933471
514.395,0.00936832
514.495,0.0094021
514.595,0.00943606
514.695,0.00947021
514.795,0.00950454
514.895,0.00953906
514.995,0.00957376
515.095,0.00960865
515.195,0.00964373
515.295,0.009679
515.395,0.00971446
515.495,0.00975012
515.595,0.00978597
515.695,0.00982202
515.795,0.00985827
515.895,0.00989471
515.995,0.00993136
516.095,0.00996821
516.195,0.0100053
516.295,0.0100425
516.395,0.01008
516.495,0.0101177
516.595,0.0101555
516.695,0.0101936
516.795,0.0102319
516.895,0.0102705
516.995,0.0103092
517.095,0.0103481
517.195,0.0103873
517.295,0.0104267
517.395,0.0104663
517.495,0.0105062
517.595,0.0105462
517.695,0.0105865
517.795,0.0106271
517.895,0.0106678
517.995,0.0107088
518.095,0.01075
518.195,0.0107915
518.295,0.0108332
518.395,0.0108751
518.495,0.0109173
518.595,0.0109597
518.695,0.0110024
518.795,0.0110453
518.895,0.0110884
518.995,0.0111318
519.095,0.0111755
519.195,0.0112194
519.295,0.0112636
519.395,0.011308
519.495,0.0113527
519.595,0.0113977
519.695,0.0114429
519.795,0.0114884
519.895,0.0115342
519.995,0.0115802
520.095,0.0116265
520.195,0.0116731
520.295,0.01172
520.395,0.0117671
520.495,0.0118145
520.595,0.0118622
520.695,0.0119102
520.795,0.0119585
520.895,0.0120071
520.995,0.0120559
521.095,0.0121051
521.195,0.0121545
521.295,0.0122043
521.395,0.0122544
521.495,0.0123047
521.595,0.0123554
521.695,0.0124064
521.795,0.0124577
521.895,0.0125093
521.995,0.0125612
522.095,0.0126135
522.195,0.0126661
522.295,0.012719
522.395,0.0127722
522.495,0.0128257
522.595,0.0128796
522.695,0.0129339
522.795,0.0129884
522.895,0.0130433
522.995,0.0130986
523.095,0.0131542
523.195,0.0132101
523.295,0.0132665
523.395,0.0133231
523.495,0.0133801
523.595,0.0134375
523.695,0.0134953
523.795,0.0135534
523.895,0.0136119
523.995,0.0136708
524.095,0.01373
524.195,0.0137896
524.295,0.0138496
524.395,0.01391
524.495,0.0139708
524.595,0.014032
524.695,0.0140936
524.795,0.0141556
524.895,0.014218
524.995,0.0142808
525.095,0.014344
525.195,0.0144076
525.295,0.0144716
525.395,0.0145361
525.495,0.014601
525.595,0.0146663
525.695,0.0147321
525.795,0.0147982
525.895,0.0148649
525.995,0.014932
526.095,0.0149995
526.195,0.0150675
526.295,0.0151359
526.395,0.0152048
526.495,0.0152741
526.595,0.015344
526.695,0.0154143
526.795,0.0154851
526.895,0.0155563
526.995,0.0156281
527.095,0.0157003
527.195,0.0157731
527.295,0.0158463
527.395,0.01592
527.495,0.0159943
527.595,0.016069
527.695,0.0161443
527.795,0.0162201
527.895,0.0162964
527.995,0.0163733
528.095,0.0164507
528.195,0.0165286
528.295,0.0166071
528.395,0.0166862
528.495,0.0167658
528.595,0.0168459
528.695,0.0169266
528.795,0.0170079
528.895,0.0170898
528.995,0.0171723
529.095,0.0172553
529.195,0.017339
529.295,0.0174232
529.395,0.0175081
529.495,0.0175935
529.595,0.0176796
529.695,0.0177663
529.795,0.0178536
529.895,0.0179416
529.995,0.0180302
530.095,0.0181195
530.195,0.0182094
530.295,0.0182999
530.395,0.0183912
530.495,0.0184831
530.595,0.0185757
530.695,0.0186689
530.795,0.0187629
530.895,0.0188576
530.995,0.0189529
531.095,0.019049
531.195,0.0191458
531.295,0.0192433
531.395,0.0193416
531.495,0.0194406
531.595,0.0195403
531.695,0.0196409
531.795,0.0197421
531.895,0.0198442
531.995,0.019947
532.095,0.0200506
532.195,0.020155
532.295,0.0202602
532.395,0.0203662
532.495,0.0204731
532.595,0.0205807
532.695,0.0206892
532.795,0.0207986
532.895,0.0209088
532.995,0.0210198
533.095,0.0211318
533.195,0.0212446
533.295,0.0213583
533.395,0.0214729
533.495,0.0215884
533.595,0.0217048
533.695,0.0218221
533.795,0.0219404
533.895,0.0220596
533.995,0.0221798
534.095,0.0223009
534.195,0.022423
534.295,0.0225461
534.395,0.0226702
534.495,0.0227953
534.595,0.0229215
534.695,0.0230486
534.795,0.0231768
534.895,0.023306
534.995,0.0234363
535.095,0.0235677
535.195,0.0237001
535.295,0.0238337
535.395,0.0239683
535.495,0.0241041
535.595,0.024241
535.695,0.0243791
535.795,0.0245183
535.895,0.0246586
535.995,0.0248002
536.095,0.0249429
536.195,0.0250869
536.295,0.0252321
536.395,0.0253785
536.495,0.0255262
536.595,0.0256751
536.695,0.0258253
536.795,0.0259768
536.895,0.0261296
536.995,0.0262837
537.095,0.0264391
537.195,0.0265959
537.295,0.0267541
537.395,0.0269136
537.495,0.0270746
537.595,0.0272369
537.695,0.0274007
537.795,0.0275659
537.895,0.0277326
537.995,0.0279008
538.095,0.0280704
538.195,0.0282416
538.295,0.0284143
538.395,0.0285885
538.495,0.0287643
538.595,0.0289417
538.695,0.0291207
538.795,0.0293013
538.895,0.0294836
538.995,0.0296675
539.095,0.0298531
539.195,0.0300404
539.295,0.0302294
539.395,0.0304201
539.495,0.0306126
539.595,0.0308069
539.695,0.031003
539.795,0.0312009
539.895,0.0314007
539.995,0.0316023
540.095,0.0318058
540.195,0.0320113
540.295,0.0322186
540.395,0.032428
540.495,0.0326393
540.595,0.0328526
540.695,0.033068
540.795,0.0332854
540.895,0.0335049
540.995,0.0337265
541.095,0.0339502
541.195,0.0341761
541.295,0.0344042
541.395,0.0346345
541.495,0.0348671
541.595,0.0351019
541.695,0.035339
541.795,0.0355785
541.895,0.0358203
541.995,0.0360645
542.095,0.0363112
542.195,0.0365602
542.295,0.0368118
542.395,0.0370659
542.495,0.0373225
542.595,0.0375817
542.695,0.0378435
542.795,0.038108
542.895,0.0383751
542.995,0.038645
543.095,0.0389176
543.195,0.039193
543.295,0.0394712
543.395,0.0397523
543.495,0.0400363
543.595,0.0403232
543.695,0.0406131
543.795,0.040906
543.895,0.0412019
543.995,0.041501
544.095,0.0418032
544.195,0.0421085
544.295,0.0424171
544.395,0.042729
544.495,0.0430442
544.595,0.0433627
544.695,0.0436846
544.795,0.04401
544.895,0.0443388
544.995,0.0446712
545.095,0.0450072
545.195,0.0453469
545.295,0.0456902
545.395,0.0460372
545.495,0.0463881
545.595,0.0467428
545.695,0.0471013
545.795,0.0474639
545.895,0.0478304
545.995,0.048201
546.095,0.0485758
546.195,0.0489547
546.295,0.0493378
546.395,0.0497252
546.495,0.050117
546.595,0.0505132
546.695,0.0509139
546.795,0.0513191
546.895,0.051729
546.995,0.0521435
547.095,0.0525628
547.195,0.0529868
547.295,0.0534158
547.395,0.0538497
547.495,0.0542886
547.595,0.0547326
547.695,0.0551818
547.795,0.0556363
547.895,0.056096
547.995,0.0565612
548.095,0.0570318
548.195,0.057508
548.295,0.0579898
548.395,0.0584774
548.495,0.0589708
548.595,0.05947
548.695,0.0599753
548.795,0.0604866
548.895,0.061004
548.995,0.0615278
549.095,0.0620578
549.195,0.0625944
549.295,0.0631374
549.395,0.0636871
549.495,0.0642435
549.595,0.0648068
549.695,0.065377
549.795,0.0659543
549.895,0.0665387
549.995,0.0671303
550.095,0.0677294
550.195,0.0683359
550.295,0.06895
550.395,0.0695718
550.495,0.0702015
550.595,0.0708391
550.695,0.0714848
550.795,0.0721387
550.895,0.072801
550.995,0.0734716
551.095,0.0741509
551.195,0.0748389
551.295,0.0755357
551.395,0.0762415
551.495,0.0769564
551.595,0.0776806
551.695,0.0784142
551.795,0.0791574
551.895,0.0799103
551.995,0.080673
552.095,0.0814458
552.195,0.0822287
552.295,0.0830219
552.395,0.0838256
552.495,0.08464
552.595,0.0854651
552.695,0.0863013
552.795,0.0871486
552.895,0.0880072
552.995,0.0888773
553.095,0.0897591
553.195,0.0906528
553.295,0.0915585
553.395,0.0924764
553.495,0.0934068
553.595,0.0943498
553.695,0.0953055
553.795,0.0962743
553.895,0.0972563
553.995,0.0982517
554.095,0.0992608
554.195,0.100284
554.295,0.101321
554.395,0.102372
554.495,0.103437
554.595,0.104518
554.695,0.105613
554.795,0.106723
554.895,0.107849
554.995,0.10899
555.095,0.110147
555.195,0.111321
555.295,0.11251
555.395,0.113716
555.495,0.114939
555.595,0.116179
555.695,0.117436
555.795,0.118711
555.895,0.120004
555.995,0.121314
556.095,0.122643
556.195,0.123991
556.295,0.125357
556.395,0.126742
556.495,0.128147
556.595,0.129571
556.695,0.131016
556.795,0.13248
556.895,0.133965
556.995,0.13547
557.095,0.136997
557.195,0.138544
557.295,0.140113
557.395,0.141704
557.495,0.143317
557.595,0.144952
557.695,0.14661
557.795,0.14829
557.895,0.149994
557.995,0.151721
558.095,0.153471
558.195,0.155245
558.295,0.157043
558.395,0.158866
558.495,0.160713
558.595,0.162585
558.695,0.164482
558.795,0.166404
558.895,0.168351
558.995,0.170324
559.095,0.172323
559.195,0.174348
559.295,0.176399
559.395,0.178476
559.495,0.18058
559.595,0.18271
559.695,0.184867
559.795,0.187051
559.895,0.189261
559.995,0.191499
560.095,0.193763
560.195,0.196055
560.295,0.198373
560.395,0.200719
560.495,0.203091
560.595,0.20549
560.695,0.207917
560.795,0.210369
560.895,0.212849
560.995,0.215354
561.095,0.217886
561.195,0.220444
561.295,0.223027
561.395,0.225635
561.495,0.228269
561.595,0.230927
561.695,0.233608
561.795,0.236314
561.895,0.239042
561.995,0.241793
562.095,0.244565
562.195,0.247359
562.295,0.250172
562.395,0.253006
562.495,0.255857
562.595,0.258727
562.695,0.261613
562.795,0.264515
562.895,0.267431
562.995,0.270361
563.095,0.273302
563.195,0.276255
563.295,0.279216
563.395,0.282186
563.495,0.285162
563.595,0.288143
563.695,0.291126
563.795,0.294111
563.895,0.297095
563.995,0.300077
564.095,0.303055
564.195,0.306025
564.295,0.308987
564.395,0.311938
564.495,0.314876
564.595,0.317798
564.695,0.320702
564.795,0.323586
564.895,0.326447
564.995,0.329282
565.095,0.332088
565.195,0.334864
565.295,0.337606
565.395,0.340311
565.495,0.342976
565.595,0.3456
565.695,0.348177
565.795,0.350707
565.895,0.353185
565.995,0.35561
566.095,0.357977
566.195,0.360283
566.295,0.362527
566.395,0.364705
566.495,0.366814
566.595,0.368852
566.695,0.370814
566.795,0.3727
566.895,0.374506
566.995,0.376229
567.095,0.377867
567.195,0.379417
567.295,0.380878
567.395,0.382246
567.495,0.38352
567.595,0.384699
567.695,0.385779
567.795,0.386759
567.895,0.387638
567.995,0.388415
568.095,0.389087
568.195,0.389654
568.295,0.390116
568.395,0.39047
568.495,0.390717
568.595,0.390857
568.695,0.390886
568.795,0.390744
568.895,0.390403
568.995,0.389863
569.095,0.389126
569.195,0.388194
569.295,0.387071
569.395,0.385758
569.495,0.384262
569.595,0.382585
569.695,0.380732
569.795,0.37871
569.895,0.376523
569.995,0.374177
570.095,0.37168
570.195,0.369038
570.295,0.366256
570.395,0.363344
570.495,0.360307
570.595,0.357154
570.695,0.353891
570.795,0.350526
570.895,0.347067
570.995,0.34352
571.095,0.339894
571.195,0.336196
571.295,0.332433
571.395,0.328611
571.495,0.324738
571.595,0.32082
571.695,0.316864
571.795,0.312877
571.895,0.308863
571.995,0.304829
572.095,0.300781
572.195,0.296724
572.295,0.292662
572.395,0.288601
572.495,0.284545
572.595,0.280498
572.695,0.276464
572.795,0.272448
572.895,0.268452
572.995,0.264481
573.095,0.260536
573.195,0.25662
573.295,0.252737
573.395,0.248889
573.495,0.245077
573.595,0.241304
573.695,0.237571
573.795,0.233881
573.895,0.230234
573.995,0.226631
574.095,0.223075
574.195,0.219565
574.295,0.216103
574.395,0.212689
574.495,0.209323
574.595,0.206007
574.695,0.202741
574.795,0.199524
574.895,0.196358
574.995,0.193241
575.095,0.190174
575.195,0.187157
575.295,0.184191
575.395,0.181273
575.495,0.178405
575.595,0.175586
575.695,0.172815
575.795,0.170093
575.895,0.167418
575.995,0.164791
576.095,0.16221
576.195,0.159675
576.295,0.157186
576.395,0.154742
576.495,0.152343
576.595,0.149987
576.695,0.147675
576.795,0.145405
576.895,0.143177
576.995,0.14099
577.095,0.138843
577.195,0.136737
577.295,0.13467
577.395,0.132641
577.495,0.13065
577.595,0.128696
577.695,0.126779
577.795,0.124898
577.895,0.123052
577.995,0.12124
578.095,0.119462
578.195,0.117718
578.295,0.116006
578.395,0.114326
578.495,0.112677
578.595,0.111059
578.695,0.109471
578.795,0.107913
578.895,0.106384
578.995,0.104883
579.095,0.103409
579.195,0.101963
579.295,0.100544
579.395,0.0991504
579.495,0.0977826
579.595,0.0964399
579.695,0.0951216
579.795,0.0938274
579.895,0.0925567
579.995,0.0913091
580.095,0.090084
580.195,0.088881
580.295,0.0876996
580.395,0.0865394
580.495,0.0854
580.595,0.0842808
580.695,0.0831816
580.795,0.0821018
580.895,0.0810411
580.995,0.0799991
581.095,0.0789753
581.195,0.0779695
581.295,0.0769812
581.395,0.07601
581.495,0.0750557
581.595,0.0741179
581.695,0.0731962
581.795,0.0722903
581.895,0.0713998
581.995,0.0705245
582.095,0.0696641
582.195,0.0688182
582.295,0.0679865
582.395,0.0671688
582.495,0.0663648
582.595,0.0655741
582.695,0.0647966
582.795,0.0640319
582.895,0.0632798
582.995,0.06254
583.095,0.0618124
583.195,0.0610965
583.295,0.0603923
583.395,0.0596995
583.495,0.0590178
583.595,0.0583471
583.695,0.0576871
583.795,0.0570376
583.895,0.0563983
583.995,0.0557692
584.095,0.05515
584.195,0.0545405
584.295,0.0539404
584.395,0.0533498
584.495,0.0527682
584.595,0.0521957
584.695,0.0516319
584.795,0.0510768
584.895,0.0505301
584.995,0.0499917
585.095,0.0494615
585.195,0.0489393
585.295,0.0484249
585.395,0.0479182
585.495,0.0474191
585.595,0.0469274
585.695,0.0464429
585.795,0.0459656
585.895,0.0454952
585.995,0.0450318
586.095,0.044575
586.195,0.0441249
586.295,0.0436813
586.395,0.0432441
586.495,0.0428132
586.595,0.0423884
586.695,0.0419696
586.795,0.0415568
586.895,0.0411498
586.995,0.0407485
587.095,0.0403528
587.195,0.0399627
587.295,0.039578
587.395,0.0391986
587.495,0.0388244
587.595,0.0384553
587.695,0.0380914
587.795,0.0377323
587.895,0.0373782
587.995,0.0370288
588.095,0.0366842
588.195,0.0363441
588.295,0.0360087
588.395,0.0356777
588.495,0.035351
588.595,0.0350287
588.695,0.0347107
588.795,0.0343968
588.895,0.034087
588.995,0.0337813
589.095,0.0334795
589.195,0.0331816
589.295,0.0328876
589.395,0.0325974
589.495,0.0323108
589.595,0.0320279
589.695,0.0317486
589.795,0.0314728
589.895,0.0312005
589.995,0.0309316
590.095,0.0306661
590.195,0.0304039
590.295,0.0301449
590.395,0.0298892
590.495,0.0296366
590.595,0.0293871
590.695,0.0291407
590.795,0.0288972
590.895,0.0286567
590.995,0.0284192
591.095,0.0281845
591.195,0.0279526
591.295,0.0277235
591.395,0.0274971
591.495,0.0272734
591.595,0.0270524
591.695,0.026834
591.795,0.0266181
591.895,0.0264048
591.995,0.026194
592.095,0.0259856
592.195,0.0257797
592.295,0.0255761
592.395,0.0253749
592.495,0.025176
592.595,0.0249794
592.695,0.024785
592.795,0.0245928
592.895,0.0244028
592.995,0.024215
593.095,0.0240292
593.195,0.0238456
593.295,0.023664
593.395,0.0234844
593.495,0.0233068
593.595,0.0231312
593.695,0.0229575
593.795,0.0227857
593.895,0.0226158
593.995,0.0224478
594.095,0.0222815
594.195,0.0221171
594.295,0.0219545
594.395,0.0217936
594.495,0.0216345
594.595,0.021477
594.695,0.0213212
594.795,0.0211671
594.895,0.0210146
594.995,0.0208638
595.095,0.0207145
595.195,0.0205668
595.295,0.0204206
595.395,0.020276
595.495,0.0201328
595.595,0.0199912
595.695,0.019851
595.795,0.0197122
595.895,0.0195749
595.995,0.019439
596.095,0.0193044
596.195,0.0191713
596.295,0.0190395
596.395,0.018909
596.495,0.0187798
596.595,0.0186519
596.695,0.0185253
596.795,0.0184
596.895,0.0182759
596.995,0.0181531
597.095,0.0180314
597.195,0.017911
597.295,0.0177917
597.395,0.0176737
597.495,0.0175567
597.595,0.0174409
597.695,0.0173263
597.795,0.0172127
597.895,0.0171002
597.995,0.0169888
598.095,0.0168785
598.195,0.0167693
598.295,0.0166611
598.395,0.0165539
598.495,0.0164477
598.595,0.0163425
598.695,0.0162384
598.795,0.0161352
598.895,0.0160329
598.995,0.0159316
599.095,0.0158313
599.195,0.0157319
599.295,0.0156334
599.395,0.0155359
599.495,0.0154392
599.595,0.0153434
599.695,0.0152485
599.795,0.0151544
599.895,0.0150612
599.995,0.0149689
600.095,0.0148774
600.195,0.0147867
600.295,0.0146968
600.395,0.0146078
600.495,0.0145195
600.595,0.014432
600.695,0.0143453
600.795,0.0142594
600.895,0.0141743
600.995,0.0140898
601.095,0.0140062
601.195,0.0139232
601.295,0.013841
601.395,0.0137595
601.495,0.0136787
601.595,0.0135986
601.695,0.0135192
601.795,0.0134405
601.895,0.0133625
601.995,0.0132851
602.095,0.0132084
602.195,0.0131324
602.295,0.013057
602.395,0.0129822
602.495,0.0129081
602.595,0.0128346
602.695,0.0127617
602.795,0.0126895
602.895,0.0126178
602.995,0.0125467
603.095,0.0124763
603.195,0.0124064
603.295,0.0123371
603.395,0.0122683
603.495,0.0122002
603.595,0.0121325
603.695,0.0120655
603.795,0.011999
603.895,0.011933
603.995,0.0118676
604.095,0.0118027
604.195,0.0117383
604.295,0.0116745
604.395,0.0116112
604.495,0.0115483
604.595,0.011486
604.695,0.0114242
604.795,0.0113629
604.895,0.011302
604.995,0.0112416
605.095,0.0111818
605.195,0.0111224
605.295,0.0110634