File: mohanta_2013/100nm/raman/curve_total_fit.dat
511.395,0.328439
511.495,0.3286
511.595,0.32876
511.695,0.328922
511.795,0.329084
511.895,0.329246
511.995,0.329409
512.095,0.329573
512.195,0.329738
512.295,0.329903
512.395,0.330069
512.495,0.330235
512.595,0.330402
512.695,0.33057
512.795,0.330738
512.895,0.330907
512.995,0.331076
513.095,0.331246
513.195,0.331417
513.295,0.331589
513.395,0.331761
513.495,0.331933
513.595,0.332106
513.695,0.33228
513.795,0.332455
513.895,0.33263
513.995,0.332806
514.095,0.332982
514.195,0.333159
514.295,0.333336
514.395,0.333515
514.495,0.333693
514.595,0.333873
514.695,0.334053
514.795,0.334233
514.895,0.334415
514.995,0.334596
515.095,0.334779
515.195,0.334962
515.295,0.335146
515.395,0.33533
515.495,0.335515
515.595,0.3357
515.695,0.335886
515.795,0.336073
515.895,0.33626
515.995,0.336448
516.095,0.336637
516.195,0.336826
516.295,0.337015
516.395,0.337206
516.495,0.337396
516.595,0.337588
516.695,0.33778
516.795,0.337973
516.895,0.338166
516.995,0.33836
517.095,0.338554
517.195,0.338749
517.295,0.338944
517.395,0.339141
517.495,0.339337
517.595,0.339535
517.695,0.339732
517.795,0.339931
517.895,0.34013
517.995,0.340329
518.095,0.34053
518.195,0.34073
518.295,0.340932
518.395,0.341133
518.495,0.341336
518.595,0.341539
518.695,0.341742
518.795,0.341946
518.895,0.342151
518.995,0.342356
519.095,0.342562
519.195,0.342768
519.295,0.342975
519.395,0.343183
519.495,0.34339
519.595,0.343599
519.695,0.343808
519.795,0.344018
519.895,0.344228
519.995,0.344438
520.095,0.34465
520.195,0.344861
520.295,0.345073
520.395,0.345286
520.495,0.3455
520.595,0.345713
520.695,0.345928
520.795,0.346143
520.895,0.346358
520.995,0.346574
521.095,0.34679
521.195,0.347007
521.295,0.347225
521.395,0.347443
521.495,0.347661
521.595,0.34788
521.695,0.3481
521.795,0.34832
521.895,0.34854
521.995,0.348761
522.095,0.348983
522.195,0.349204
522.295,0.349427
522.395,0.34965
522.495,0.349873
522.595,0.350097
522.695,0.350322
522.795,0.350547
522.895,0.350772
522.995,0.350998
523.095,0.351224
523.195,0.351451
523.295,0.351678
523.395,0.351906
523.495,0.352134
523.595,0.352363
523.695,0.352592
523.795,0.352822
523.895,0.353052
523.995,0.353282
524.095,0.353513
524.195,0.353744
524.295,0.353976
524.395,0.354209
524.495,0.354441
524.595,0.354675
524.695,0.354908
524.795,0.355142
524.895,0.355377
524.995,0.355612
525.095,0.355847
525.195,0.356083
525.295,0.356319
525.395,0.356556
525.495,0.356793
525.595,0.357031
525.695,0.357269
525.795,0.357507
525.895,0.357746
525.995,0.357985
526.095,0.358225
526.195,0.358465
526.295,0.358706
526.395,0.358947
526.495,0.359188
526.595,0.35943
526.695,0.359672
526.795,0.359914
526.895,0.360157
526.995,0.360401
527.095,0.360645
527.195,0.360889
527.295,0.361133
527.395,0.361378
527.495,0.361624
527.595,0.361869
527.695,0.362116
527.795,0.362362
527.895,0.362609
527.995,0.362856
528.095,0.363104
528.195,0.363352
528.295,0.363601
528.395,0.36385
528.495,0.364099
528.595,0.364349
528.695,0.364599
528.795,0.364849
528.895,0.3651
528.995,0.365351
529.095,0.365603
529.195,0.365855
529.295,0.366107
529.395,0.36636
529.495,0.366613
529.595,0.366866
529.695,0.36712
529.795,0.367374
529.895,0.367629
529.995,0.367884
530.095,0.368139
530.195,0.368395
530.295,0.368651
530.395,0.368908
530.495,0.369165
530.595,0.369422
530.695,0.36968
530.795,0.369938
530.895,0.370196
530.995,0.370455
531.095,0.370714
531.195,0.370974
531.295,0.371234
531.395,0.371494
531.495,0.371755
531.595,0.372016
531.695,0.372277
531.795,0.372539
531.895,0.372801
531.995,0.373064
532.095,0.373327
532.195,0.37359
532.295,0.373854
532.395,0.374119
532.495,0.374383
532.595,0.374648
532.695,0.374914
532.795,0.375179
532.895,0.375446
532.995,0.375712
533.095,0.375979
533.195,0.376247
533.295,0.376515
533.395,0.376783
533.495,0.377052
533.595,0.377321
533.695,0.377591
533.795,0.377861
533.895,0.378131
533.995,0.378402
534.095,0.378674
534.195,0.378945
534.295,0.379218
534.395,0.379491
534.495,0.379764
534.595,0.380037
534.695,0.380312
534.795,0.380586
534.895,0.380861
534.995,0.381137
535.095,0.381413
535.195,0.38169
535.295,0.381967
535.395,0.382244
535.495,0.382522
535.595,0.382801
535.695,0.38308
535.795,0.38336
535.895,0.38364
535.995,0.383921
536.095,0.384202
536.195,0.384484
536.295,0.384767
536.395,0.38505
536.495,0.385333
536.595,0.385617
536.695,0.385902
536.795,0.386188
536.895,0.386474
536.995,0.38676
537.095,0.387048
537.195,0.387336
537.295,0.387624
537.395,0.387914
537.495,0.388204
537.595,0.388494
537.695,0.388786
537.795,0.389078
537.895,0.38937
537.995,0.389664
538.095,0.389958
538.195,0.390253
538.295,0.390549
538.395,0.390845
538.495,0.391143
538.595,0.391441
538.695,0.39174
538.795,0.392039
538.895,0.39234
538.995,0.392641
539.095,0.392944
539.195,0.393247
539.295,0.393551
539.395,0.393856
539.495,0.394162
539.595,0.394469
539.695,0.394777
539.795,0.395086
539.895,0.395395
539.995,0.395706
540.095,0.396018
540.195,0.396331
540.295,0.396645
540.395,0.39696
540.495,0.397276
540.595,0.397594
540.695,0.397912
540.795,0.398232
540.895,0.398553
540.995,0.398875
541.095,0.399198
541.195,0.399522
541.295,0.399848
541.395,0.400175
541.495,0.400504
541.595,0.400833
541.695,0.401164
541.795,0.401497
541.895,0.401831
541.995,0.402166
542.095,0.402503
542.195,0.402841
542.295,0.403181
542.395,0.403523
542.495,0.403866
542.595,0.40421
542.695,0.404556
542.795,0.404904
542.895,0.405254
542.995,0.405605
543.095,0.405958
543.195,0.406313
543.295,0.40667
543.395,0.407028
543.495,0.407389
543.595,0.407751
543.695,0.408116
543.795,0.408482
543.895,0.40885
543.995,0.409221
544.095,0.409593
544.195,0.409968
544.295,0.410345
544.395,0.410724
544.495,0.411106
544.595,0.411489
544.695,0.411875
544.795,0.412264
544.895,0.412655
544.995,0.413048
545.095,0.413444
545.195,0.413843
545.295,0.414244
545.395,0.414648
545.495,0.415054
545.595,0.415463
545.695,0.415875
545.795,0.41629
545.895,0.416708
545.995,0.417129
546.095,0.417553
546.195,0.41798
546.295,0.418411
546.395,0.418844
546.495,0.419281
546.595,0.419721
546.695,0.420164
546.795,0.420611
546.895,0.421061
546.995,0.421515
547.095,0.421973
547.195,0.422434
547.295,0.422899
547.395,0.423368
547.495,0.42384
547.595,0.424317
547.695,0.424798
547.795,0.425283
547.895,0.425772
547.995,0.426266
548.095,0.426763
548.195,0.427266
548.295,0.427772
548.395,0.428284
548.495,0.4288
548.595,0.429321
548.695,0.429846
548.795,0.430377
548.895,0.430912
548.995,0.431453
549.095,0.431999
549.195,0.43255
549.295,0.433107
549.395,0.433669
549.495,0.434237
549.595,0.434811
549.695,0.43539
549.795,0.435975
549.895,0.436566
549.995,0.437164
550.095,0.437767
550.195,0.438377
550.295,0.438994
550.395,0.439617
550.495,0.440246
550.595,0.44088
550.695,0.441518
550.795,0.442161
550.895,0.442808
550.995,0.44346
551.095,0.444117
551.195,0.444778
551.295,0.445445
551.395,0.446117
551.495,0.446795
551.595,0.447478
551.695,0.448167
551.795,0.448861
551.895,0.449562
551.995,0.450268
552.095,0.450981
552.195,0.451701
552.295,0.452427
552.395,0.45316
552.495,0.4539
552.595,0.454647
552.695,0.455401
552.795,0.456164
552.895,0.456933
552.995,0.457711
553.095,0.458497
553.195,0.459291
553.295,0.460093
553.395,0.460905
553.495,0.461725
553.595,0.462554
553.695,0.463393
553.795,0.464241
553.895,0.465099
553.995,0.465967
554.095,0.466845
554.195,0.467734
554.295,0.468633
554.395,0.469544
554.495,0.470465
554.595,0.471398
554.695,0.472342
554.795,0.473299
554.895,0.474267
554.995,0.475248
555.095,0.476242
555.195,0.477248
555.295,0.478268
555.395,0.479301
555.495,0.480348
555.595,0.481409
555.695,0.482484
555.795,0.483574
555.895,0.484679
555.995,0.485798
556.095,0.486933
556.195,0.488084
556.295,0.489251
556.395,0.490434
556.495,0.491633
556.595,0.49285
556.695,0.494084
556.795,0.495335
556.895,0.496603
556.995,0.49789
557.095,0.499195
557.195,0.500519
557.295,0.501862
557.395,0.503224
557.495,0.504606
557.595,0.506007
557.695,0.507429
557.795,0.508871
557.895,0.510334
557.995,0.511817
558.095,0.513323
558.195,0.514849
558.295,0.516398
558.395,0.517968
558.495,0.519562
558.595,0.521177
558.695,0.522816
558.795,0.524478
558.895,0.526163
558.995,0.527872
559.095,0.529605
559.195,0.531362
559.295,0.533143
559.395,0.534949
559.495,0.53678
559.595,0.538635
559.695,0.540516
559.795,0.542421
559.895,0.544352
559.995,0.546308
560.095,0.54829
560.195,0.550297
560.295,0.552329
560.395,0.554388
560.495,0.556472
560.595,0.558581
560.695,0.560716
560.795,0.562876
560.895,0.565062
560.995,0.567272
561.095,0.569508
561.195,0.571769
561.295,0.574053
561.395,0.576363
561.495,0.578696
561.595,0.581052
561.695,0.583432
561.795,0.585834
561.895,0.588258
561.995,0.590704
562.095,0.593171
562.195,0.595659
562.295,0.598165
562.395,0.600691
562.495,0.603234
562.595,0.605795
562.695,0.608372
562.795,0.610964
562.895,0.61357
562.995,0.616188
563.095,0.618819
563.195,0.62146
563.295,0.624109
563.395,0.626767
563.495,0.62943
563.595,0.632098
563.695,0.634769
563.795,0.63744
563.895,0.640111
563.995,0.64278
564.095,0.645444
564.195,0.648101
564.295,0.650749
564.395,0.653387
564.495,0.656012
564.595,0.658621
564.695,0.661212
564.795,0.663782
564.895,0.66633
564.995,0.668853
565.095,0.671347
565.195,0.673811
565.295,0.676241
565.395,0.678635
565.495,0.680989
565.595,0.683302
565.695,0.68557
565.795,0.68779
565.895,0.689959
565.995,0.692075
566.095,0.694134
566.195,0.696133
566.295,0.69807
566.395,0.699942
566.495,0.701746
566.595,0.703478
566.695,0.705137
566.795,0.706719
566.895,0.708222
566.995,0.709643
567.095,0.71098
567.195,0.712231
567.295,0.713392
567.395,0.714462
567.495,0.715439
567.595,0.716321
567.695,0.717106
567.795,0.717791
567.895,0.718377
567.995,0.718861
568.095,0.719242
568.195,0.719519
568.295,0.719691
568.395,0.719757
568.495,0.719717
568.595,0.719571
568.695,0.719316
568.795,0.71889
568.895,0.718267
568.995,0.717445
569.095,0.716429
569.195,0.715218
569.295,0.713817
569.395,0.712229
569.495,0.710458
569.595,0.708507
569.695,0.706383
569.795,0.70409
569.895,0.701634
569.995,0.69902
570.095,0.696257
570.195,0.693349
570.295,0.690304
570.395,0.687129
570.495,0.683832
570.595,0.680419
570.695,0.676898
570.795,0.673277
570.895,0.669563
570.995,0.665763
571.095,0.661886
571.195,0.657937
571.295,0.653925
571.395,0.649856
571.495,0.645737
571.595,0.641575
571.695,0.637377
571.795,0.633149
571.895,0.628896
571.995,0.624624
572.095,0.62034
572.195,0.616048
572.295,0.611753
572.395,0.607461
572.495,0.603175
572.595,0.5989
572.695,0.594641
572.795,0.5904
572.895,0.586181
572.995,0.581988
573.095,0.577823
573.195,0.573689
573.295,0.56959
573.395,0.565527
573.495,0.561502
573.595,0.557517
573.695,0.553575
573.795,0.549677
573.895,0.545823
573.995,0.542016
574.095,0.538256
574.195,0.534545
574.295,0.530883
574.395,0.527271
574.495,0.52371
574.595,0.520199
574.695,0.51674
574.795,0.513332
574.895,0.509975
574.995,0.506671
575.095,0.503418
575.195,0.500216
575.295,0.497067
575.395,0.493968
575.495,0.49092
575.595,0.487923
575.695,0.484976
575.795,0.482079
575.895,0.479231
575.995,0.476433
576.095,0.473682
576.195,0.47098
576.295,0.468324
576.395,0.465715
576.495,0.463153
576.595,0.460636
576.695,0.458163
576.795,0.455735
576.895,0.45335
576.995,0.451008
577.095,0.448708
577.195,0.44645
577.295,0.444232
577.395,0.442054
577.495,0.439916
577.595,0.437817
577.695,0.435755
577.795,0.433731
577.895,0.431744
577.995,0.429793
578.095,0.427877
578.195,0.425996
578.295,0.424149
578.395,0.422336
578.495,0.420555
578.595,0.418807
578.695,0.41709
578.795,0.415404
578.895,0.413748
578.995,0.412123
579.095,0.410526
579.195,0.408958
579.295,0.407418
579.395,0.405906
579.495,0.404421
579.595,0.402962
579.695,0.401529
579.795,0.400121
579.895,0.398738
579.995,0.39738
580.095,0.396046
580.195,0.394735
580.295,0.393447
580.395,0.392181
580.495,0.390938
580.595,0.389716
580.695,0.388515
580.795,0.387335
580.895,0.386175
580.995,0.385036
581.095,0.383916
581.195,0.382815
581.295,0.381733
581.395,0.380669
581.495,0.379623
581.595,0.378595
581.695,0.377584
581.795,0.37659
581.895,0.375613
581.995,0.374652
582.095,0.373708
582.195,0.372778
582.295,0.371865
582.395,0.370966
582.495,0.370082
582.595,0.369213
582.695,0.368357
582.795,0.367516
582.895,0.366688
582.995,0.365874
583.095,0.365073
583.195,0.364285
583.295,0.363509
583.395,0.362746
583.495,0.361995
583.595,0.361256
583.695,0.360528
583.795,0.359813
583.895,0.359108
583.995,0.358414
584.095,0.357732
584.195,0.357059
584.295,0.356398
584.395,0.355746
584.495,0.355105
584.595,0.354473
584.695,0.353852
584.795,0.353239
584.895,0.352636
584.995,0.352043
585.095,0.351458
585.195,0.350882
585.295,0.350314
585.395,0.349756
585.495,0.349205
585.595,0.348663
585.695,0.348129
585.795,0.347603
585.895,0.347084
585.995,0.346573
586.095,0.34607
586.195,0.345574
586.295,0.345085
586.395,0.344603
586.495,0.344129
586.595,0.343661
586.695,0.3432
586.795,0.342745
586.895,0.342297
586.995,0.341856
587.095,0.341421
587.195,0.340991
587.295,0.340568
587.395,0.340151
587.495,0.33974
587.595,0.339335
587.695,0.338935
587.795,0.338541
587.895,0.338152
587.995,0.337769
588.095,0.33739
588.195,0.337018
588.295,0.33665
588.395,0.336287
588.495,0.335929
588.595,0.335576
588.695,0.335228
588.795,0.334885
588.895,0.334546
588.995,0.334212
589.095,0.333882
589.195,0.333556
589.295,0.333235
589.395,0.332918
589.495,0.332606
589.595,0.332297
589.695,0.331993
589.795,0.331692
589.895,0.331396
589.995,0.331103
590.095,0.330814
590.195,0.330529
590.295,0.330247
590.395,0.32997
590.495,0.329695
590.595,0.329424
590.695,0.329157
590.795,0.328893
590.895,0.328633
590.995,0.328375
591.095,0.328121
591.195,0.32787
591.295,0.327622
591.395,0.327378
591.495,0.327136
591.595,0.326897
591.695,0.326662
591.795,0.326429
591.895,0.326199
591.995,0.325972
592.095,0.325748
592.195,0.325526
592.295,0.325307
592.395,0.325091
592.495,0.324877
592.595,0.324666
592.695,0.324457
592.795,0.324251
592.895,0.324048
592.995,0.323847
593.095,0.323648
593.195,0.323451
593.295,0.323257
593.395,0.323065
593.495,0.322875
593.595,0.322688
593.695,0.322503
593.795,0.32232
593.895,0.322139
593.995,0.32196
594.095,0.321783
594.195,0.321608
594.295,0.321435
594.395,0.321264
594.495,0.321095
594.595,0.320928
594.695,0.320763
594.795,0.3206
594.895,0.320438
594.995,0.320278
595.095,0.320121
595.195,0.319964
595.295,0.31981
595.395,0.319657
595.495,0.319506
595.595,0.319357
595.695,0.319209
595.795,0.319063
595.895,0.318918
595.995,0.318775
596.095,0.318634
596.195,0.318494
596.295,0.318355
596.395,0.318218
596.495,0.318083
596.595,0.317949
596.695,0.317816
596.795,0.317685
596.895,0.317555
596.995,0.317426
597.095,0.317299
597.195,0.317173
597.295,0.317049
597.395,0.316925
597.495,0.316803
597.595,0.316682
597.695,0.316563
597.795,0.316445
597.895,0.316328
597.995,0.316212
598.095,0.316097
598.195,0.315983
598.295,0.315871
598.395,0.31576
598.495,0.315649
598.595,0.31554
598.695,0.315432
598.795,0.315325
598.895,0.315219
598.995,0.315114
599.095,0.315011
599.195,0.314908
599.295,0.314806
599.395,0.314705
599.495,0.314605
599.595,0.314506
599.695,0.314408
599.795,0.314311
599.895,0.314215
599.995,0.31412
600.095,0.314026
600.195,0.313933
600.295,0.31384
600.395,0.313748
600.495,0.313658
600.595,0.313568
600.695,0.313479
600.795,0.31339
600.895,0.313303
600.995,0.313216
601.095,0.31313
601.195,0.313045
601.295,0.312961
601.395,0.312878
601.495,0.312795
601.595,0.312713
601.695,0.312632
601.795,0.312551
601.895,0.312471
601.995,0.312392
602.095,0.312314
602.195,0.312236
602.295,0.312159
602.395,0.312083
602.495,0.312007
602.595,0.311932
602.695,0.311858
602.795,0.311784
602.895,0.311711
602.995,0.311639
603.095,0.311567
603.195,0.311496
603.295,0.311425
603.395,0.311355
603.495,0.311286
603.595,0.311217
603.695,0.311149
603.795,0.311082
603.895,0.311015
603.995,0.310948
604.095,0.310882
604.195,0.310817
604.295,0.310752
604.395,0.310688
604.495,0.310624
604.595,0.310561
604.695,0.310498
604.795,0.310436
604.895,0.310374
604.995,0.310313
605.095,0.310253
605.195,0.310193
605.295,0.310133