File: mohanta_2013/100nm/raman/curve_1_fit.dat
511.395,0.0209612
511.495,0.0210924
511.595,0.0212241
511.695,0.0213563
511.795,0.0214889
511.895,0.021622
511.995,0.0217557
512.095,0.0218897
512.195,0.0220243
512.295,0.0221593
512.395,0.0222948
512.495,0.0224308
512.595,0.0225672
512.695,0.0227041
512.795,0.0228415
512.895,0.0229793
512.995,0.0231176
513.095,0.0232564
513.195,0.0233956
513.295,0.0235353
513.395,0.0236754
513.495,0.023816
513.595,0.023957
513.695,0.0240985
513.795,0.0242404
513.895,0.0243828
513.995,0.0245256
514.095,0.0246689
514.195,0.0248126
514.295,0.0249567
514.395,0.0251013
514.495,0.0252463
514.595,0.0253917
514.695,0.0255376
514.795,0.0256839
514.895,0.0258306
514.995,0.0259777
515.095,0.0261253
515.195,0.0262733
515.295,0.0264217
515.395,0.0265705
515.495,0.0267197
515.595,0.0268693
515.695,0.0270194
515.795,0.0271698
515.895,0.0273206
515.995,0.0274719
516.095,0.0276235
516.195,0.0277755
516.295,0.0279279
516.395,0.0280807
516.495,0.0282339
516.595,0.0283875
516.695,0.0285414
516.795,0.0286957
516.895,0.0288504
516.995,0.0290055
517.095,0.0291609
517.195,0.0293167
517.295,0.0294728
517.395,0.0296294
517.495,0.0297862
517.595,0.0299434
517.695,0.030101
517.795,0.0302589
517.895,0.0304172
517.995,0.0305757
518.095,0.0307347
518.195,0.0308939
518.295,0.0310535
518.395,0.0312134
518.495,0.0313736
518.595,0.0315342
518.695,0.031695
518.795,0.0318562
518.895,0.0320177
518.995,0.0321795
519.095,0.0323416
519.195,0.0325039
519.295,0.0326666
519.395,0.0328296
519.495,0.0329928
519.595,0.0331564
519.695,0.0333202
519.795,0.0334842
519.895,0.0336486
519.995,0.0338132
520.095,0.0339781
520.195,0.0341432
520.295,0.0343086
520.395,0.0344742
520.495,0.0346401
520.595,0.0348062
520.695,0.0349726
520.795,0.0351392
520.895,0.035306
520.995,0.0354731
521.095,0.0356403
521.195,0.0358078
521.295,0.0359755
521.395,0.0361434
521.495,0.0363115
521.595,0.0364798
521.695,0.0366483
521.795,0.036817
521.895,0.0369858
521.995,0.0371549
522.095,0.0373241
522.195,0.0374935
522.295,0.0376631
522.395,0.0378328
522.495,0.0380027
522.595,0.0381727
522.695,0.0383429
522.795,0.0385132
522.895,0.0386837
522.995,0.0388543
523.095,0.039025
523.195,0.0391958
523.295,0.0393668
523.395,0.0395379
523.495,0.039709
523.595,0.0398803
523.695,0.0400517
523.795,0.0402232
523.895,0.0403947
523.995,0.0405664
524.095,0.0407381
524.195,0.0409099
524.295,0.0410818
524.395,0.0412537
524.495,0.0414257
524.595,0.0415977
524.695,0.0417698
524.795,0.0419419
524.895,0.0421141
524.995,0.0422863
525.095,0.0424585
525.195,0.0426307
525.295,0.0428029
525.395,0.0429752
525.495,0.0431474
525.595,0.0433197
525.695,0.0434919
525.795,0.0436642
525.895,0.0438364
525.995,0.0440086
526.095,0.0441807
526.195,0.0443528
526.295,0.0445249
526.395,0.0446969
526.495,0.0448689
526.595,0.0450408
526.695,0.0452127
526.795,0.0453845
526.895,0.0455562
526.995,0.0457278
527.095,0.0458993
527.195,0.0460708
527.295,0.0462421
527.395,0.0464134
527.495,0.0465845
527.595,0.0467555
527.695,0.0469264
527.795,0.0470971
527.895,0.0472678
527.995,0.0474382
528.095,0.0476086
528.195,0.0477788
528.295,0.0479488
528.395,0.0481186
528.495,0.0482883
528.595,0.0484578
528.695,0.0486272
528.795,0.0487963
528.895,0.0489652
528.995,0.049134
529.095,0.0493025
529.195,0.0494708
529.295,0.0496389
529.395,0.0498068
529.495,0.0499745
529.595,0.0501419
529.695,0.050309
529.795,0.0504759
529.895,0.0506426
529.995,0.050809
530.095,0.0509751
530.195,0.0511409
530.295,0.0513065
530.395,0.0514718
530.495,0.0516368
530.595,0.0518015
530.695,0.0519658
530.795,0.0521299
530.895,0.0522937
530.995,0.0524571
531.095,0.0526202
531.195,0.0527829
531.295,0.0529453
531.395,0.0531074
531.495,0.0532691
531.595,0.0534304
531.695,0.0535914
531.795,0.053752
531.895,0.0539122
531.995,0.0540721
532.095,0.0542315
532.195,0.0543905
532.295,0.0545492
532.395,0.0547074
532.495,0.0548652
532.595,0.0550225
532.695,0.0551795
532.795,0.055336
532.895,0.055492
532.995,0.0556476
533.095,0.0558028
533.195,0.0559575
533.295,0.0561117
533.395,0.0562654
533.495,0.0564187
533.595,0.0565715
533.695,0.0567238
533.795,0.0568755
533.895,0.0570268
533.995,0.0571776
534.095,0.0573278
534.195,0.0574775
534.295,0.0576267
534.395,0.0577754
534.495,0.0579235
534.595,0.058071
534.695,0.058218
534.795,0.0583645
534.895,0.0585104
534.995,0.0586557
535.095,0.0588004
535.195,0.0589445
535.295,0.059088
535.395,0.059231
535.495,0.0593733
535.595,0.0595151
535.695,0.0596562
535.795,0.0597967
535.895,0.0599365
535.995,0.0600757
536.095,0.0602143
536.195,0.0603523
536.295,0.0604896
536.395,0.0606262
536.495,0.0607622
536.595,0.0608975
536.695,0.0610321
536.795,0.061166
536.895,0.0612993
536.995,0.0614318
537.095,0.0615637
537.195,0.0616949
537.295,0.0618253
537.395,0.0619551
537.495,0.0620841
537.595,0.0622124
537.695,0.0623399
537.795,0.0624667
537.895,0.0625928
537.995,0.0627181
538.095,0.0628427
538.195,0.0629665
538.295,0.0630896
538.395,0.0632118
538.495,0.0633333
538.595,0.063454
538.695,0.063574
538.795,0.0636931
538.895,0.0638114
538.995,0.063929
539.095,0.0640457
539.195,0.0641616
539.295,0.0642767
539.395,0.064391
539.495,0.0645044
539.595,0.064617
539.695,0.0647288
539.795,0.0648397
539.895,0.0649498
539.995,0.065059
540.095,0.0651674
540.195,0.0652749
540.295,0.0653815
540.395,0.0654873
540.495,0.0655922
540.595,0.0656961
540.695,0.0657993
540.795,0.0659015
540.895,0.0660028
540.995,0.0661032
541.095,0.0662027
541.195,0.0663013
541.295,0.066399
541.395,0.0664958
541.495,0.0665916
541.595,0.0666865
541.695,0.0667805
541.795,0.0668735
541.895,0.0669656
541.995,0.0670568
542.095,0.067147
542.195,0.0672362
542.295,0.0673245
542.395,0.0674118
542.495,0.0674982
542.595,0.0675836
542.695,0.067668
542.795,0.0677514
542.895,0.0678339
542.995,0.0679153
543.095,0.0679958
543.195,0.0680753
543.295,0.0681538
543.395,0.0682312
543.495,0.0683077
543.595,0.0683832
543.695,0.0684576
543.795,0.0685311
543.895,0.0686035
543.995,0.0686749
544.095,0.0687453
544.195,0.0688146
544.295,0.0688829
544.395,0.0689502
544.495,0.0690164
544.595,0.0690816
544.695,0.0691458
544.795,0.0692089
544.895,0.069271
544.995,0.069332
545.095,0.0693919
545.195,0.0694508
545.295,0.0695086
545.395,0.0695654
545.495,0.0696211
545.595,0.0696757
545.695,0.0697292
545.795,0.0697817
545.895,0.0698331
545.995,0.0698834
546.095,0.0699326
546.195,0.0699808
546.295,0.0700278
546.395,0.0700738
546.495,0.0701187
546.595,0.0701625
546.695,0.0702051
546.795,0.0702467
546.895,0.0702872
546.995,0.0703266
547.095,0.0703649
547.195,0.0704021
547.295,0.0704381
547.395,0.0704731
547.495,0.070507
547.595,0.0705397
547.695,0.0705713
547.795,0.0706018
547.895,0.0706312
547.995,0.0706595
548.095,0.0706867
548.195,0.0707127
548.295,0.0707376
548.395,0.0707614
548.495,0.070784
548.595,0.0708056
548.695,0.070826
548.795,0.0708453
548.895,0.0708634
548.995,0.0708805
549.095,0.0708963
549.195,0.0709111
549.295,0.0709247
549.395,0.0709372
549.495,0.0709486
549.595,0.0709588
549.695,0.0709679
549.795,0.0709759
549.895,0.0709827
549.995,0.0709884
550.095,0.070993
550.195,0.0709964
550.295,0.0709987
550.395,0.0709999
550.495,0.0709996
550.595,0.0709958
550.695,0.0709884
550.795,0.0709771
550.895,0.0709622
550.995,0.0709434
551.095,0.0709209
551.195,0.0708947
551.295,0.0708647
551.395,0.0708309
551.495,0.0707935
551.595,0.0707523
551.695,0.0707074
551.795,0.0706587
551.895,0.0706064
551.995,0.0705503
552.095,0.0704906
552.195,0.0704272
552.295,0.0703601
552.395,0.0702894
552.495,0.070215
552.595,0.0701369
552.695,0.0700553
552.795,0.06997
552.895,0.0698811
552.995,0.0697887
553.095,0.0696927
553.195,0.0695931
553.295,0.06949
553.395,0.0693833
553.495,0.0692732
553.595,0.0691595
553.695,0.0690424
553.795,0.0689219
553.895,0.0687979
553.995,0.0686705
554.095,0.0685397
554.195,0.0684055
554.295,0.0682679
554.395,0.0681271
554.495,0.0679829
554.595,0.0678354
554.695,0.0676847
554.795,0.0675307
554.895,0.0673735
554.995,0.0672131
555.095,0.0670495
555.195,0.0668828
555.295,0.066713
555.395,0.06654
555.495,0.066364
555.595,0.066185
555.695,0.066003
555.795,0.0658179
555.895,0.0656299
555.995,0.065439
556.095,0.0652452
556.195,0.0650485
556.295,0.0648489
556.395,0.0646466
556.495,0.0644414
556.595,0.0642335
556.695,0.0640229
556.795,0.0638096
556.895,0.0635937
556.995,0.0633751
557.095,0.0631539
557.195,0.0629301
557.295,0.0627038
557.395,0.0624751
557.495,0.0622438
557.595,0.0620102
557.695,0.0617741
557.795,0.0615357
557.895,0.0612949
557.995,0.0610519
558.095,0.0608066
558.195,0.0605591
558.295,0.0603093
558.395,0.0600575
558.495,0.0598035
558.595,0.0595474
558.695,0.0592893
558.795,0.0590292
558.895,0.0587671
558.995,0.0585031
559.095,0.0582371
559.195,0.0579694
559.295,0.0576997
559.395,0.0574283
559.495,0.0571552
559.595,0.0568803
559.695,0.0566038
559.795,0.0563256
559.895,0.0560458
559.995,0.0557644
560.095,0.0554815
560.195,0.0551972
560.295,0.0549114
560.395,0.0546241
560.495,0.0543355
560.595,0.0540455
560.695,0.0537543
560.795,0.0534618
560.895,0.053168
560.995,0.0528731
561.095,0.052577
561.195,0.0522798
561.295,0.0519816
561.395,0.0516823
561.495,0.051382
561.595,0.0510807
561.695,0.0507785
561.795,0.0504754
561.895,0.0501715
561.995,0.0498668
562.095,0.0495613
562.195,0.049255
562.295,0.0489481
562.395,0.0486404
562.495,0.0483322
562.595,0.0480234
562.695,0.047714
562.795,0.0474041
562.895,0.0470937
562.995,0.0467828
563.095,0.0464716
563.195,0.04616
563.295,0.045848
563.395,0.0455357
563.495,0.0452232
563.595,0.0449104
563.695,0.0445975
563.795,0.0442843
563.895,0.0439711
563.995,0.0436577
564.095,0.0433443
564.195,0.0430308
564.295,0.0427174
564.395,0.042404
564.495,0.0420906
564.595,0.0417774
564.695,0.0414643
564.795,0.0411513
564.895,0.0408386
564.995,0.040526
565.095,0.0402138
565.195,0.0399018
565.295,0.0395902
565.395,0.0392789
565.495,0.038968
565.595,0.0386575
565.695,0.0383474
565.795,0.0380379
565.895,0.0377288
565.995,0.0374202
566.095,0.0371122
566.195,0.0368048
566.295,0.036498
566.395,0.0361919
566.495,0.0358864
566.595,0.0355816
566.695,0.0352775
566.795,0.0349742
566.895,0.0346716
566.995,0.0343698
567.095,0.0340689
567.195,0.0337688
567.295,0.0334696
567.395,0.0331712
567.495,0.0328738
567.595,0.0325774
567.695,0.0322818
567.795,0.0319873
567.895,0.0316938
567.995,0.0314013
568.095,0.0311099
568.195,0.0308195
568.295,0.0305302
568.395,0.0302421
568.495,0.029955
568.595,0.0296692
568.695,0.0293845
568.795,0.0291009
568.895,0.0288186
568.995,0.0285376
569.095,0.0282577
569.195,0.0279791
569.295,0.0277018
569.395,0.0274258
569.495,0.0271512
569.595,0.0268778
569.695,0.0266058
569.795,0.0263351
569.895,0.0260658
569.995,0.0257979
570.095,0.0255314
570.195,0.0252663
570.295,0.0250027
570.395,0.0247405
570.495,0.0244797
570.595,0.0242204
570.695,0.0239626
570.795,0.0237062
570.895,0.0234514
570.995,0.0231981
571.095,0.0229463
571.195,0.022696
571.295,0.0224472
571.395,0.0222001
571.495,0.0219544
571.595,0.0217104
571.695,0.0214679
571.795,0.021227
571.895,0.0209877
571.995,0.02075
572.095,0.0205139
572.195,0.0202794
572.295,0.0200465
572.395,0.0198152
572.495,0.0195856
572.595,0.0193576
572.695,0.0191313
572.795,0.0189066
572.895,0.0186835
572.995,0.0184622
573.095,0.0182424
573.195,0.0180243
573.295,0.0178079
573.395,0.0175932
573.495,0.0173801
573.595,0.0171687
573.695,0.0169589
573.795,0.0167509
573.895,0.0165445
573.995,0.0163398
574.095,0.0161367
574.195,0.0159354
574.295,0.0157357
574.395,0.0155377
574.495,0.0153414
574.595,0.0151468
574.695,0.0149538
574.795,0.0147625
574.895,0.0145729
574.995,0.014385
575.095,0.0141987
575.195,0.0140141
575.295,0.0138312
575.395,0.0136499
575.495,0.0134703
575.595,0.0132924
575.695,0.0131161
575.795,0.0129414
575.895,0.0127684
575.995,0.0125971
576.095,0.0124274
576.195,0.0122593
576.295,0.0120929
576.395,0.0119281
576.495,0.0117649
576.595,0.0116033
576.695,0.0114434
576.795,0.011285
576.895,0.0111283
576.995,0.0109731
577.095,0.0108196
577.195,0.0106676
577.295,0.0105172
577.395,0.0103684
577.495,0.0102211
577.595,0.0100754
577.695,0.00993126
577.795,0.00978865
577.895,0.00964757
577.995,0.00950803
578.095,0.00937001
578.195,0.0092335
578.295,0.0090985
578.395,0.00896499
578.495,0.00883298
578.595,0.00870245
578.695,0.0085734
578.795,0.00844581
578.895,0.00831968
578.995,0.008195
579.095,0.00807176
579.195,0.00794995
579.295,0.00782957
579.395,0.0077106
579.495,0.00759303
579.595,0.00747686
579.695,0.00736208
579.795,0.00724868
579.895,0.00713665
579.995,0.00702597
580.095,0.00691664
580.195,0.00680866
580.295,0.00670201
580.395,0.00659667
580.495,0.00649265
580.595,0.00638993
580.695,0.0062885
580.795,0.00618836
580.895,0.00608948
580.995,0.00599187
581.095,0.00589551
581.195,0.0058004
581.295,0.00570651
581.395,0.00561385
581.495,0.0055224
581.595,0.00543215
581.695,0.0053431
581.795,0.00525522
581.895,0.00516852
581.995,0.00508297
582.095,0.00499858
582.195,0.00491533
582.295,0.00483321
582.395,0.00475221
582.495,0.00467232
582.595,0.00459353
582.695,0.00451583
582.795,0.00443921
582.895,0.00436365
582.995,0.00428916
583.095,0.00421571
583.195,0.0041433
583.295,0.00407192
583.395,0.00400156
583.495,0.00393221
583.595,0.00386385
583.695,0.00379648
583.795,0.00373009
583.895,0.00366466
583.995,0.00360019
584.095,0.00353667
584.195,0.00347408
584.295,0.00341242
584.395,0.00335168
584.495,0.00329184
584.595,0.0032329
584.695,0.00317485
584.795,0.00311768
584.895,0.00306137
584.995,0.00300592
585.095,0.00295132
585.195,0.00289755
585.295,0.00284462
585.395,0.0027925
585.495,0.0027412
585.595,0.00269069
585.695,0.00264098
585.795,0.00259204
585.895,0.00254388
585.995,0.00249648
586.095,0.00244984
586.195,0.00240393
586.295,0.00235877
586.395,0.00231433
586.495,0.0022706
586.595,0.00222759
586.695,0.00218527
586.795,0.00214364
586.895,0.0021027
586.995,0.00206243
587.095,0.00202282
587.195,0.00198387
587.295,0.00194556
587.395,0.00190789
587.495,0.00187086
587.595,0.00183444
587.695,0.00179864
587.795,0.00176344
587.895,0.00172884
587.995,0.00169483
588.095,0.00166141
588.195,0.00162855
588.295,0.00159626
588.395,0.00156453
588.495,0.00153334
588.595,0.0015027
588.695,0.00147259
588.795,0.00144301
588.895,0.00141395
588.995,0.0013854
589.095,0.00135735
589.195,0.00132981
589.295,0.00130275
589.395,0.00127617
589.495,0.00125008
589.595,0.00122445
589.695,0.00119928
589.795,0.00117456
589.895,0.0011503
589.995,0.00112648
590.095,0.00110309
590.195,0.00108013
590.295,0.00105759
590.395,0.00103547
590.495,0.00101375
590.595,0.000992443
590.695,0.000971529
590.795,0.000951005
590.895,0.000930865
590.995,0.000911104
591.095,0.000891714
591.195,0.000872692
591.295,0.000854029
591.395,0.000835722
591.495,0.000817764
591.595,0.000800149
591.695,0.000782872
591.795,0.000765927
591.895,0.00074931
591.995,0.000733014
592.095,0.000717035
592.195,0.000701367
592.295,0.000686005
592.395,0.000670944
592.495,0.000656178
592.595,0.000641704
592.695,0.000627516
592.795,0.000613609
592.895,0.000599978
592.995,0.000586619
593.095,0.000573527
593.195,0.000560698
593.295,0.000548126
593.395,0.000535808
593.495,0.000523739
593.595,0.000511915
593.695,0.000500331
593.795,0.000488984
593.895,0.000477868
593.995,0.00046698
594.095,0.000456317
594.195,0.000445873
594.295,0.000435645
594.395,0.000425629
594.495,0.000415822
594.595,0.000406218
594.695,0.000396816
594.795,0.000387611
594.895,0.000378599
594.995,0.000369777
595.095,0.000361142
595.195,0.000352689
595.295,0.000344416
595.395,0.00033632
595.495,0.000328396
595.595,0.000320642
595.695,0.000313055
595.795,0.00030563
595.895,0.000298367
595.995,0.00029126
596.095,0.000284307
596.195,0.000277506
596.295,0.000270853
596.395,0.000264346
596.495,0.000257981
596.595,0.000251756
596.695,0.000245669
596.795,0.000239716
596.895,0.000233894
596.995,0.000228202
597.095,0.000222637
597.195,0.000217196
597.295,0.000211877
597.395,0.000206677
597.495,0.000201594
597.595,0.000196625
597.695,0.000191769
597.795,0.000187023
597.895,0.000182385
597.995,0.000177852
598.095,0.000173423
598.195,0.000169095
598.295,0.000164866
598.395,0.000160735
598.495,0.000156698
598.595,0.000152755
598.695,0.000148904
598.795,0.000145142
598.895,0.000141467
598.995,0.000137878
599.095,0.000134373
599.195,0.00013095
599.295,0.000127608
599.395,0.000124344
599.495,0.000121158
599.595,0.000118047
599.695,0.000115009
599.795,0.000112044
599.895,0.00010915
599.995,0.000106324
600.095,0.000103566
600.195,0.000100875
600.295,9.82481e-05
600.395,9.56846e-05
600.495,9.31831e-05
600.595,9.07421e-05
600.695,8.83605e-05
600.795,8.60368e-05
600.895,8.37697e-05
600.995,8.15581e-05
601.095,7.94006e-05
601.195,7.72962e-05
601.295,7.52435e-05
601.395,7.32414e-05
601.495,7.12889e-05
601.595,6.93847e-05
601.695,6.75278e-05
601.795,6.57171e-05
601.895,6.39516e-05
601.995,6.22302e-05
602.095,6.05519e-05
602.195,5.89158e-05
602.295,5.73208e-05
602.395,5.57661e-05
602.495,5.42507e-05
602.595,5.27736e-05
602.695,5.13341e-05
602.795,4.99312e-05
602.895,4.8564e-05
602.995,4.72318e-05
603.095,4.59336e-05
603.195,4.46688e-05
603.295,4.34366e-05
603.395,4.2236e-05
603.495,4.10665e-05
603.595,3.99273e-05
603.695,3.88176e-05
603.795,3.77367e-05
603.895,3.6684e-05
603.995,3.56588e-05
604.095,3.46603e-05
604.195,3.36881e-05
604.295,3.27414e-05
604.395,3.18196e-05
604.495,3.09221e-05
604.595,3.00484e-05
604.695,2.91977e-05
604.795,2.83697e-05
604.895,2.75637e-05
604.995,2.67792e-05
605.095,2.60156e-05
605.195,2.52724e-05
605.295,2.45492e-05